w_word1,w_word2,w_corrAns,w_category,word1,word2,corrAns,category,w_hword1,w_hword2,w_hcorrAns,w_hcategory,hword1,hword2,hcorrAns,hcategory,enwarmuptrials.thisRepN,enwarmuptrials.thisTrialN,enwarmuptrials.thisN,enwarmuptrials.thisIndex,en_trials.thisRepN,en_trials.thisTrialN,en_trials.thisN,en_trials.thisIndex,hiwarmuptrials.thisRepN,hiwarmuptrials.thisTrialN,hiwarmuptrials.thisN,hiwarmuptrials.thisIndex,hi_trials.thisRepN,hi_trials.thisTrialN,hi_trials.thisN,hi_trials.thisIndex,eninstrstim.started,eninstrstim.stopped,enkbinstr.keys,enkbinstr.corr,enkbinstr.rt,enkbinstr.started,enkbinstr.stopped,enwarmupw1.started,enwarmupw1.stopped,enwarmupw2.started,enwarmupw2.stopped,enwarmupkb.keys,enwarmupkb.corr,enwarmupkb.rt,enwarmupkb.started,enwarmupkb.stopped,restresp.keys,restresp.started,restresp.stopped,startexpprompt.started,startexpprompt.stopped,startexpkbresp.keys,startexpkbresp.rt,startexpkbresp.started,startexpkbresp.stopped,entrialw1.started,entrialw1.stopped,entrialw2.started,entrialw2.stopped,enkbresp.keys,enkbresp.corr,enkbresp.rt,enkbresp.started,enkbresp.stopped,hiinstrstim.started,hiinstrstim.stopped,hikbinstr.keys,hikbinstr.corr,hikbinstr.rt,hikbinstr.started,hikbinstr.stopped,hiwarmupw1.started,hiwarmupw1.stopped,hiwarmupw2.started,hiwarmupw2.stopped,hiwarmupkb.keys,hiwarmupkb.corr,hiwarmupkb.rt,hiwarmupkb.started,hiwarmupkb.stopped,hitrialw1.started,hitrialw1.stopped,hitrialw2.started,hitrialw2.stopped,hikbresp.keys,hikbresp.corr,hikbresp.rt,hikbresp.started,hikbresp.stopped,hiskill.text,hiskill.started,hiskill.stopped,hirespskill.keys,hirespskill.rt,hirespskill.started,hirespskill.stopped,enskill_2.text,enskill_2.started,enskill_2.stopped,enrespskill_2.keys,enrespskill_2.rt,enrespskill_2.started,enrespskill_2.stopped,thankstext.started,thankstext.stopped,participant,age,gender,date,expName,psychopyVersion,frameRate,
,,,,,,,,,,,,,,,,,,,,,,,,,,,,,,,,24.022371760001988,None,right,0,43.33807026199065,24.022371760001988,None,,,,,,,,,,,,,,,,,,,,,,,,,,,,,,,,,,,,,,,,,,,,,,,,,,,,,,,,,,,,,,,,,,,,,1,00,m,2021_Apr_09_1709,ldt_en_hi,2021.1.3,1322.4639122839803,
sun,cepy,left,5,,,,,,,,,,,,,0,0,0,3,,,,,,,,,,,,,,,,,,,,67.40927154500969,None,67.40927154500969,None,left,1,1.977229823009111,67.40927154500969,None,None,69.38811655899917,None,,,,,,,,,,,,,,,,,,,,,,,,,,,,,,,,,,,,,,,,,,,,,,,,,,,,,,,,,1,00,m,2021_Apr_09_1709,ldt_en_hi,2021.1.3,1322.4639122839803,
ash,ashtray,right,1,,,,,,,,,,,,,0,1,1,1,,,,,,,,,,,,,,,,,,,,69.89054736300022,None,69.89054736300022,None,right,1,6.280466748008621,69.89054736300022,None,None,76.17240465800569,None,,,,,,,,,,,,,,,,,,,,,,,,,,,,,,,,,,,,,,,,,,,,,,,,,,,,,,,,,1,00,m,2021_Apr_09_1709,ldt_en_hi,2021.1.3,1322.4639122839803,
mick,lofy,left,3,,,,,,,,,,,,,0,2,2,4,,,,,,,,,,,,,,,,,,,,76.67450774701138,None,76.67450774701138,None,left,1,5.241956065001432,76.67450774701138,None,None,81.9177608480095,None,,,,,,,,,,,,,,,,,,,,,,,,,,,,,,,,,,,,,,,,,,,,,,,,,,,,,,,,,1,00,m,2021_Apr_09_1709,ldt_en_hi,2021.1.3,1322.4639122839803,
whistle,england,right,2,,,,,,,,,,,,,0,3,3,0,,,,,,,,,,,,,,,,,,,,82.42024740501074,None,82.42024740501074,None,right,1,4.15167559600377,82.42024740501074,None,None,86.57325353700435,None,,,,,,,,,,,,,,,,,,,,,,,,,,,,,,,,,,,,,,,,,,,,,,,,,,,,,,,,,1,00,m,2021_Apr_09_1709,ldt_en_hi,2021.1.3,1322.4639122839803,
fite,crack,left,4,,,,,,,,,,,,,0,4,4,2,,,,,,,,,,,,,,,,,,,,87.07545856400975,None,87.07545856400975,None,left,1,1.4624100259970874,87.07545856400975,None,None,88.539214643999,None,,,,,,,,,,,,,,,,,,,,,,,,,,,,,,,,,,,,,,,,,,,,,,,,,,,,,,,,,1,00,m,2021_Apr_09_1709,ldt_en_hi,2021.1.3,1322.4639122839803,
,,,,,,,,,,,,,,,,,,,,,,,,,,,,,,,,,,,,,,,,,,,,,,,,,,,89.04003550500784,None,right,18.541195785001037,89.04003550500784,None,,,,,,,,,,,,,,,,,,,,,,,,,,,,,,,,,,,,,,,,,,,,,,,,,,,1,00,m,2021_Apr_09_1709,ldt_en_hi,2021.1.3,1322.4639122839803,
,,,,,,,,,,,,,,,,,,,,,,,,,,,,,,,,,,,,,,,,,,,,,,,,None,107.58227824200003,None,,,,,,,,,,,,,,,,,,,,,,,,,,,,,,,,,,,,,,,,,,,,,,,,,,,,,,,,,1,00,m,2021_Apr_09_1709,ldt_en_hi,2021.1.3,1322.4639122839803,
,,,,antidote,averake,left,5,,,,,,,,,,,,,0,0,0,58,,,,,,,,,,,,,,,,,,,,,,,,,None,111.68112460400152,None,,,,,,,108.10894274100428,None,108.10894274100428,None,right,0,3.570119500000146,108.10894274100428,None,,,,,,,,,,,,,,,,,,,,,,,,,,,,,,,,,,,,,,,,,,1,00,m,2021_Apr_09_1709,ldt_en_hi,2021.1.3,1322.4639122839803,
,,,,frugtry,cheat,left,4,,,,,,,,,,,,,0,1,1,70,,,,,,,,,,,,,,,,,,,,,,,,,None,115.0832339740009,None,,,,,,,112.1839650059992,None,112.1839650059992,None,left,1,2.897891921005794,112.1839650059992,None,,,,,,,,,,,,,,,,,,,,,,,,,,,,,,,,,,,,,,,,,,1,00,m,2021_Apr_09_1709,ldt_en_hi,2021.1.3,1322.4639122839803,
,,,,seem,bitch,right,2,,,,,,,,,,,,,0,2,2,34,,,,,,,,,,,,,,,,,,,,,,,,,None,118.68951517100504,None,,,,,,,115.59548413399898,None,115.59548413399898,None,right,1,3.0926531379955122,115.59548413399898,None,,,,,,,,,,,,,,,,,,,,,,,,,,,,,,,,,,,,,,,,,,1,00,m,2021_Apr_09_1709,ldt_en_hi,2021.1.3,1322.4639122839803,
,,,,valuabzr,additkos,left,3,,,,,,,,,,,,,0,3,3,42,,,,,,,,,,,,,,,,,,,,,,,,,None,122.04031053499784,None,,,,,,,119.19827148600598,None,119.19827148600598,None,left,1,2.840670271005365,119.19827148600598,None,,,,,,,,,,,,,,,,,,,,,,,,,,,,,,,,,,,,,,,,,,1,00,m,2021_Apr_09_1709,ldt_en_hi,2021.1.3,1322.4639122839803,
,,,,caklqblower,fashion,left,4,,,,,,,,,,,,,0,4,4,79,,,,,,,,,,,,,,,,,,,,,,,,,None,125.90555609299918,None,,,,,,,122.55226801001118,None,122.55226801001118,None,left,1,3.351936780993128,122.55226801001118,None,,,,,,,,,,,,,,,,,,,,,,,,,,,,,,,,,,,,,,,,,,1,00,m,2021_Apr_09_1709,ldt_en_hi,2021.1.3,1322.4639122839803,
,,,,bow,arrow,right,1,,,,,,,,,,,,,0,5,5,5,,,,,,,,,,,,,,,,,,,,,,,,,None,128.37288629999966,None,,,,,,,126.40776610800822,None,126.40776610800822,None,right,1,1.9637466040003346,126.40776610800822,None,,,,,,,,,,,,,,,,,,,,,,,,,,,,,,,,,,,,,,,,,,1,00,m,2021_Apr_09_1709,ldt_en_hi,2021.1.3,1322.4639122839803,
,,,,rug,carpet,right,1,,,,,,,,,,,,,0,6,6,15,,,,,,,,,,,,,,,,,,,,,,,,,None,130.74437670200132,None,,,,,,,128.87579642800847,None,128.87579642800847,None,right,1,1.86696510699403,128.87579642800847,None,,,,,,,,,,,,,,,,,,,,,,,,,,,,,,,,,,,,,,,,,,1,00,m,2021_Apr_09_1709,ldt_en_hi,2021.1.3,1322.4639122839803,
,,,,mustache,beard,right,1,,,,,,,,,,,,,0,7,7,6,,,,,,,,,,,,,,,,,,,,,,,,,None,134.2478707679984,None,,,,,,,131.24708278400067,None,131.24708278400067,None,right,1,2.9994219719956163,131.24708278400067,None,,,,,,,,,,,,,,,,,,,,,,,,,,,,,,,,,,,,,,,,,,1,00,m,2021_Apr_09_1709,ldt_en_hi,2021.1.3,1322.4639122839803,
,,,,inquire,blush,right,2,,,,,,,,,,,,,0,8,8,39,,,,,,,,,,,,,,,,,,,,,,,,,None,137.2192108140007,None,,,,,,,134.75024292300805,None,134.75024292300805,None,right,1,2.4675924300099723,134.75024292300805,None,,,,,,,,,,,,,,,,,,,,,,,,,,,,,,,,,,,,,,,,,,1,00,m,2021_Apr_09_1709,ldt_en_hi,2021.1.3,1322.4639122839803,
,,,,inventor,leab,left,5,,,,,,,,,,,,,0,9,9,54,,,,,,,,,,,,,,,,,,,,,,,,,None,140.94674177600245,None,,,,,,,137.72214994599926,None,137.72214994599926,None,left,1,3.22321498200472,137.72214994599926,None,,,,,,,,,,,,,,,,,,,,,,,,,,,,,,,,,,,,,,,,,,1,00,m,2021_Apr_09_1709,ldt_en_hi,2021.1.3,1322.4639122839803,
,,,,busg,data,left,4,,,,,,,,,,,,,0,10,10,78,,,,,,,,,,,,,,,,,,,,,,,,,None,143.27799432400207,None,,,,,,,141.44917075400008,None,141.44917075400008,None,left,1,1.8271863400004804,141.44917075400008,None,,,,,,,,,,,,,,,,,,,,,,,,,,,,,,,,,,,,,,,,,,1,00,m,2021_Apr_09_1709,ldt_en_hi,2021.1.3,1322.4639122839803,
,,,,policeman,cop,right,1,,,,,,,,,,,,,0,11,11,18,,,,,,,,,,,,,,,,,,,,,,,,,None,145.70305503800046,None,,,,,,,143.7813358780113,None,143.7813358780113,None,right,1,1.9203118870063918,143.7813358780113,None,,,,,,,,,,,,,,,,,,,,,,,,,,,,,,,,,,,,,,,,,,1,00,m,2021_Apr_09_1709,ldt_en_hi,2021.1.3,1322.4639122839803,
,,,,cricket,blow,right,2,,,,,,,,,,,,,0,12,12,37,,,,,,,,,,,,,,,,,,,,,,,,,None,147.6604118910036,None,,,,,,,146.20561110400013,None,146.20561110400013,None,right,1,1.4534042660088744,146.20561110400013,None,,,,,,,,,,,,,,,,,,,,,,,,,,,,,,,,,,,,,,,,,,1,00,m,2021_Apr_09_1709,ldt_en_hi,2021.1.3,1322.4639122839803,
,,,,disown,atom,right,2,,,,,,,,,,,,,0,13,13,21,,,,,,,,,,,,,,,,,,,,,,,,,None,151.06162815100106,None,,,,,,,148.16311806500016,None,148.16311806500016,None,right,1,2.8971028340019984,148.16311806500016,None,,,,,,,,,,,,,,,,,,,,,,,,,,,,,,,,,,,,,,,,,,1,00,m,2021_Apr_09_1709,ldt_en_hi,2021.1.3,1322.4639122839803,
,,,,data,beaufifsl,left,5,,,,,,,,,,,,,0,14,14,63,,,,,,,,,,,,,,,,,,,,,,,,,None,154.2707728009991,None,,,,,,,151.5645550420013,None,151.5645550420013,None,left,1,2.704800952997175,151.5645550420013,None,,,,,,,,,,,,,,,,,,,,,,,,,,,,,,,,,,,,,,,,,,1,00,m,2021_Apr_09_1709,ldt_en_hi,2021.1.3,1322.4639122839803,
,,,,disagreement,blanket,right,2,,,,,,,,,,,,,0,15,15,36,,,,,,,,,,,,,,,,,,,,,,,,,None,156.65836898201087,None,,,,,,,154.7737764140038,None,154.7737764140038,None,right,1,1.8831953360058833,154.7737764140038,None,,,,,,,,,,,,,,,,,,,,,,,,,,,,,,,,,,,,,,,,,,1,00,m,2021_Apr_09_1709,ldt_en_hi,2021.1.3,1322.4639122839803,
,,,,adorable,bckpwck,left,5,,,,,,,,,,,,,0,16,16,59,,,,,,,,,,,,,,,,,,,,,,,,,None,159.8796257560025,None,,,,,,,157.1608339259983,None,157.1608339259983,None,left,1,2.7174092500063125,157.1608339259983,None,,,,,,,,,,,,,,,,,,,,,,,,,,,,,,,,,,,,,,,,,,1,00,m,2021_Apr_09_1709,ldt_en_hi,2021.1.3,1322.4639122839803,
,,,,mabapine,environment,left,4,,,,,,,,,,,,,0,17,17,77,,,,,,,,,,,,,,,,,,,,,,,,,None,163.2919090110081,None,,,,,,,160.38265105000755,None,160.38265105000755,None,left,1,2.907869111004402,160.38265105000755,None,,,,,,,,,,,,,,,,,,,,,,,,,,,,,,,,,,,,,,,,,,1,00,m,2021_Apr_09_1709,ldt_en_hi,2021.1.3,1322.4639122839803,
,,,,mug,beer,right,1,,,,,,,,,,,,,0,18,18,7,,,,,,,,,,,,,,,,,,,,,,,,,None,164.70387781001045,None,,,,,,,163.7943811849982,None,163.7943811849982,None,right,1,0.9081154849991435,163.7943811849982,None,,,,,,,,,,,,,,,,,,,,,,,,,,,,,,,,,,,,,,,,,,1,00,m,2021_Apr_09_1709,ldt_en_hi,2021.1.3,1322.4639122839803,
,,,,harmful,cownr,left,5,,,,,,,,,,,,,0,19,19,61,,,,,,,,,,,,,,,,,,,,,,,,,None,166.68130691400438,None,,,,,,,165.20662406399788,None,165.20662406399788,None,left,1,1.473286915992503,165.20662406399788,None,,,,,,,,,,,,,,,,,,,,,,,,,,,,,,,,,,,,,,,,,,1,00,m,2021_Apr_09_1709,ldt_en_hi,2021.1.3,1322.4639122839803,
,,,,ocbohus,bitch,left,4,,,,,,,,,,,,,0,20,20,72,,,,,,,,,,,,,,,,,,,,,,,,,None,170.13004223600728,None,,,,,,,167.1838262050005,None,167.1838262050005,None,right,0,2.944804362996365,167.1838262050005,None,,,,,,,,,,,,,,,,,,,,,,,,,,,,,,,,,,,,,,,,,,1,00,m,2021_Apr_09_1709,ldt_en_hi,2021.1.3,1322.4639122839803,
,,,,suggest,ballet,right,2,,,,,,,,,,,,,0,21,21,26,,,,,,,,,,,,,,,,,,,,,,,,,None,176.02646835100313,None,,,,,,,170.63276383900666,None,170.63276383900666,None,right,1,5.392261740009417,170.63276383900666,None,,,,,,,,,,,,,,,,,,,,,,,,,,,,,,,,,,,,,,,,,,1,00,m,2021_Apr_09_1709,ldt_en_hi,2021.1.3,1322.4639122839803,
,,,,contract,bar,right,2,,,,,,,,,,,,,0,22,22,27,,,,,,,,,,,,,,,,,,,,,,,,,None,177.92661805399985,None,,,,,,,176.52938407700276,None,176.52938407700276,None,right,1,1.39582517099916,176.52938407700276,None,,,,,,,,,,,,,,,,,,,,,,,,,,,,,,,,,,,,,,,,,,1,00,m,2021_Apr_09_1709,ldt_en_hi,2021.1.3,1322.4639122839803,
,,,,saucer,uttac,left,5,,,,,,,,,,,,,0,23,23,57,,,,,,,,,,,,,,,,,,,,,,,,,None,183.60711497500597,None,,,,,,,178.42917103999935,None,178.42917103999935,None,left,1,5.176548609000747,178.42917103999935,None,,,,,,,,,,,,,,,,,,,,,,,,,,,,,,,,,,,,,,,,,,1,00,m,2021_Apr_09_1709,ldt_en_hi,2021.1.3,1322.4639122839803,
,,,,octopus,arms,right,1,,,,,,,,,,,,,0,24,24,4,,,,,,,,,,,,,,,,,,,,,,,,,None,185.56004996001138,None,,,,,,,184.11006540500966,None,184.11006540500966,None,right,1,1.4485704069957137,184.11006540500966,None,,,,,,,,,,,,,,,,,,,,,,,,,,,,,,,,,,,,,,,,,,1,00,m,2021_Apr_09_1709,ldt_en_hi,2021.1.3,1322.4639122839803,
,,,,capability,attic,right,2,,,,,,,,,,,,,0,25,25,22,,,,,,,,,,,,,,,,,,,,,,,,,None,190.20413509100035,None,,,,,,,186.0629672470095,None,186.0629672470095,None,left,0,4.139749983994989,186.0629672470095,None,,,,,,,,,,,,,,,,,,,,,,,,,,,,,,,,,,,,,,,,,,1,00,m,2021_Apr_09_1709,ldt_en_hi,2021.1.3,1322.4639122839803,
,,,,dasewn,ufraca,left,3,,,,,,,,,,,,,0,26,26,43,,,,,,,,,,,,,,,,,,,,,,,,,None,194.18921102500462,None,,,,,,,190.70753510500072,None,190.70753510500072,None,left,1,3.4802768130030017,190.70753510500072,None,,,,,,,,,,,,,,,,,,,,,,,,,,,,,,,,,,,,,,,,,,1,00,m,2021_Apr_09_1709,ldt_en_hi,2021.1.3,1322.4639122839803,
,,,,disallow,beat,right,2,,,,,,,,,,,,,0,27,27,29,,,,,,,,,,,,,,,,,,,,,,,,,None,196.77572690500529,None,,,,,,,194.69224687899987,None,194.69224687899987,None,right,1,2.0820834199985256,194.69224687899987,None,,,,,,,,,,,,,,,,,,,,,,,,,,,,,,,,,,,,,,,,,,1,00,m,2021_Apr_09_1709,ldt_en_hi,2021.1.3,1322.4639122839803,
,,,,mgstachi,forest,left,4,,,,,,,,,,,,,0,28,28,74,,,,,,,,,,,,,,,,,,,,,,,,,None,199.9357470140094,None,,,,,,,197.27886941700126,None,197.27886941700126,None,left,1,2.65549086300598,197.27886941700126,None,,,,,,,,,,,,,,,,,,,,,,,,,,,,,,,,,,,,,,,,,,1,00,m,2021_Apr_09_1709,ldt_en_hi,2021.1.3,1322.4639122839803,
,,,,perigrm,unswir,left,3,,,,,,,,,,,,,0,29,29,45,,,,,,,,,,,,,,,,,,,,,,,,,None,203.88613325401093,None,,,,,,,200.43835094000679,None,200.43835094000679,None,left,1,3.446368908000295,200.43835094000679,None,,,,,,,,,,,,,,,,,,,,,,,,,,,,,,,,,,,,,,,,,,1,00,m,2021_Apr_09_1709,ldt_en_hi,2021.1.3,1322.4639122839803,
,,,,region,blame,right,2,,,,,,,,,,,,,0,30,30,35,,,,,,,,,,,,,,,,,,,,,,,,,None,205.25327013300557,None,,,,,,,204.38869409701147,None,204.38869409701147,None,right,1,0.8629180349962553,204.38869409701147,None,,,,,,,,,,,,,,,,,,,,,,,,,,,,,,,,,,,,,,,,,,1,00,m,2021_Apr_09_1709,ldt_en_hi,2021.1.3,1322.4639122839803,
,,,,snuggle,atnton,left,5,,,,,,,,,,,,,0,31,31,56,,,,,,,,,,,,,,,,,,,,,,,,,None,208.14710316700803,None,,,,,,,205.75615009400644,None,205.75615009400644,None,left,1,2.3895176880032523,205.75615009400644,None,,,,,,,,,,,,,,,,,,,,,,,,,,,,,,,,,,,,,,,,,,1,00,m,2021_Apr_09_1709,ldt_en_hi,2021.1.3,1322.4639122839803,
,,,,disbhvmeve,destroy,left,4,,,,,,,,,,,,,0,32,32,76,,,,,,,,,,,,,,,,,,,,,,,,,None,211.0388013269985,None,,,,,,,208.64988853700925,None,208.64988853700925,None,left,1,2.3869954370020423,208.64988853700925,None,,,,,,,,,,,,,,,,,,,,,,,,,,,,,,,,,,,,,,,,,,1,00,m,2021_Apr_09_1709,ldt_en_hi,2021.1.3,1322.4639122839803,
,,,,suggeyf,biurd,left,3,,,,,,,,,,,,,0,33,33,48,,,,,,,,,,,,,,,,,,,,,,,,,None,213.7591761470103,None,,,,,,,211.54134611001064,None,211.54134611001064,None,left,1,2.2164128579897806,211.54134611001064,None,,,,,,,,,,,,,,,,,,,,,,,,,,,,,,,,,,,,,,,,,,1,00,m,2021_Apr_09_1709,ldt_en_hi,2021.1.3,1322.4639122839803,
,,,,valuable,devil,right,2,,,,,,,,,,,,,0,34,34,20,,,,,,,,,,,,,,,,,,,,,,,,,None,215.28148502700788,None,,,,,,,214.26220206600556,None,214.26220206600556,None,right,1,1.0178594419994624,214.26220206600556,None,,,,,,,,,,,,,,,,,,,,,,,,,,,,,,,,,,,,,,,,,,1,00,m,2021_Apr_09_1709,ldt_en_hi,2021.1.3,1322.4639122839803,
,,,,stpactin,fear,left,4,,,,,,,,,,,,,0,35,35,68,,,,,,,,,,,,,,,,,,,,,,,,,None,217.71561303301132,None,,,,,,,215.78447239899833,None,215.78447239899833,None,left,1,1.9297173980012303,215.78447239899833,None,,,,,,,,,,,,,,,,,,,,,,,,,,,,,,,,,,,,,,,,,,1,00,m,2021_Apr_09_1709,ldt_en_hi,2021.1.3,1322.4639122839803,
,,,,poldcemps,uccipt,left,3,,,,,,,,,,,,,0,36,36,40,,,,,,,,,,,,,,,,,,,,,,,,,None,220.00922708799771,None,,,,,,,218.21846202900633,None,218.21846202900633,None,left,1,1.7893496830074582,218.21846202900633,None,,,,,,,,,,,,,,,,,,,,,,,,,,,,,,,,,,,,,,,,,,1,00,m,2021_Apr_09_1709,ldt_en_hi,2021.1.3,1322.4639122839803,
,,,,awbxenems,belvem,left,3,,,,,,,,,,,,,0,37,37,50,,,,,,,,,,,,,,,,,,,,,,,,,None,222.06463847401028,None,,,,,,,220.51189991401043,None,220.51189991401043,None,left,1,1.5513175210071495,220.51189991401043,None,,,,,,,,,,,,,,,,,,,,,,,,,,,,,,,,,,,,,,,,,,1,00,m,2021_Apr_09_1709,ldt_en_hi,2021.1.3,1322.4639122839803,
,,,,ucter,arks,left,3,,,,,,,,,,,,,0,38,38,46,,,,,,,,,,,,,,,,,,,,,,,,,None,224.75492211000528,None,,,,,,,222.56778536400816,None,222.56778536400816,None,left,1,2.1857187090063235,222.56778536400816,None,,,,,,,,,,,,,,,,,,,,,,,,,,,,,,,,,,,,,,,,,,1,00,m,2021_Apr_09_1709,ldt_en_hi,2021.1.3,1322.4639122839803,
,,,,aczreis,duty,left,4,,,,,,,,,,,,,0,39,39,67,,,,,,,,,,,,,,,,,,,,,,,,,None,227.8481461150077,None,,,,,,,225.25743212600355,None,225.25743212600355,None,left,1,2.589295769997989,225.25743212600355,None,,,,,,,,,,,,,,,,,,,,,,,,,,,,,,,,,,,,,,,,,,1,00,m,2021_Apr_09_1709,ldt_en_hi,2021.1.3,1322.4639122839803,
,,,,imhge,eyes,left,4,,,,,,,,,,,,,0,40,40,75,,,,,,,,,,,,,,,,,,,,,,,,,None,230.29157709800347,None,,,,,,,228.35079612300615,None,228.35079612300615,None,left,1,1.9393377829983365,228.35079612300615,None,,,,,,,,,,,,,,,,,,,,,,,,,,,,,,,,,,,,,,,,,,1,00,m,2021_Apr_09_1709,ldt_en_hi,2021.1.3,1322.4639122839803,
,,,,disbelieve,believe,right,1,,,,,,,,,,,,,0,41,41,8,,,,,,,,,,,,,,,,,,,,,,,,,None,231.83857423100562,None,,,,,,,230.79481902600673,None,230.79481902600673,None,right,1,1.0423288960009813,230.79481902600673,None,,,,,,,,,,,,,,,,,,,,,,,,,,,,,,,,,,,,,,,,,,1,00,m,2021_Apr_09_1709,ldt_en_hi,2021.1.3,1322.4639122839803,
,,,,udvirb,prew,left,3,,,,,,,,,,,,,0,42,42,47,,,,,,,,,,,,,,,,,,,,,,,,,None,235.24280008400092,None,,,,,,,232.34164584599785,None,232.34164584599785,None,left,1,2.8996970230073202,232.34164584599785,None,,,,,,,,,,,,,,,,,,,,,,,,,,,,,,,,,,,,,,,,,,1,00,m,2021_Apr_09_1709,ldt_en_hi,2021.1.3,1322.4639122839803,
,,,,capmpiwity,nney,left,3,,,,,,,,,,,,,0,43,43,44,,,,,,,,,,,,,,,,,,,,,,,,,None,237.94901008599845,None,,,,,,,235.74553932300478,None,235.74553932300478,None,left,1,2.2020498589990893,235.74553932300478,None,,,,,,,,,,,,,,,,,,,,,,,,,,,,,,,,,,,,,,,,,,1,00,m,2021_Apr_09_1709,ldt_en_hi,2021.1.3,1322.4639122839803,
,,,,displfow,pcycce,left,3,,,,,,,,,,,,,0,44,44,51,,,,,,,,,,,,,,,,,,,,,,,,,None,240.35305725000217,None,,,,,,,238.45171519900032,None,238.45171519900032,None,left,1,1.899679007998202,238.45171519900032,None,,,,,,,,,,,,,,,,,,,,,,,,,,,,,,,,,,,,,,,,,,1,00,m,2021_Apr_09_1709,ldt_en_hi,2021.1.3,1322.4639122839803,
,,,,explanation,answer,right,1,,,,,,,,,,,,,0,45,45,3,,,,,,,,,,,,,,,,,,,,,,,,,None,241.8998963230115,None,,,,,,,240.85616413400567,None,240.85616413400567,None,right,1,1.042297599997255,240.85616413400567,None,,,,,,,,,,,,,,,,,,,,,,,,,,,,,,,,,,,,,,,,,,1,00,m,2021_Apr_09_1709,ldt_en_hi,2021.1.3,1322.4639122839803,
,,,,tumor,cancer,right,1,,,,,,,,,,,,,0,46,46,14,,,,,,,,,,,,,,,,,,,,,,,,,None,243.43681559200922,None,,,,,,,242.402826051999,None,242.402826051999,None,right,1,1.0325256859941874,242.402826051999,None,,,,,,,,,,,,,,,,,,,,,,,,,,,,,,,,,,,,,,,,,,1,00,m,2021_Apr_09_1709,ldt_en_hi,2021.1.3,1322.4639122839803,
,,,,anteater,belt,right,2,,,,,,,,,,,,,0,47,47,33,,,,,,,,,,,,,,,,,,,,,,,,,None,244.8516176539997,None,,,,,,,243.93985244601208,None,243.93985244601208,None,right,1,0.9103295789973345,243.93985244601208,None,,,,,,,,,,,,,,,,,,,,,,,,,,,,,,,,,,,,,,,,,,1,00,m,2021_Apr_09_1709,ldt_en_hi,2021.1.3,1322.4639122839803,
,,,,perform,average,right,2,,,,,,,,,,,,,0,48,48,23,,,,,,,,,,,,,,,,,,,,,,,,,None,246.74494215400773,None,,,,,,,245.35454555301112,None,245.35454555301112,None,left,0,1.3889487279957393,245.35454555301112,None,,,,,,,,,,,,,,,,,,,,,,,,,,,,,,,,,,,,,,,,,,1,00,m,2021_Apr_09_1709,ldt_en_hi,2021.1.3,1322.4639122839803,
,,,,exdlavstion,cloth,left,4,,,,,,,,,,,,,0,49,49,71,,,,,,,,,,,,,,,,,,,,,,,,,None,255.06794726700173,None,,,,,,,247.2478731470037,None,247.2478731470037,None,left,1,7.8184161450044485,247.2478731470037,None,,,,,,,,,,,,,,,,,,,,,,,,,,,,,,,,,,,,,,,,,,1,00,m,2021_Apr_09_1709,ldt_en_hi,2021.1.3,1322.4639122839803,
,,,,riject,farm,left,4,,,,,,,,,,,,,0,50,50,66,,,,,,,,,,,,,,,,,,,,,,,,,None,261.6035332850006,None,,,,,,,255.5779280620045,None,255.5779280620045,None,left,1,6.0241517149988795,255.5779280620045,None,,,,,,,,,,,,,,,,,,,,,,,,,,,,,,,,,,,,,,,,,,1,00,m,2021_Apr_09_1709,ldt_en_hi,2021.1.3,1322.4639122839803,
,,,,actor,axe,right,2,,,,,,,,,,,,,0,51,51,24,,,,,,,,,,,,,,,,,,,,,,,,,None,265.6079552900046,None,,,,,,,262.1066862230073,None,262.1066862230073,None,right,1,3.4998268210038077,262.1066862230073,None,,,,,,,,,,,,,,,,,,,,,,,,,,,,,,,,,,,,,,,,,,1,00,m,2021_Apr_09_1709,ldt_en_hi,2021.1.3,1322.4639122839803,
,,,,tricycle,bicycle,right,1,,,,,,,,,,,,,0,52,52,9,,,,,,,,,,,,,,,,,,,,,,,,,None,267.8456788809999,None,,,,,,,266.1107693009981,None,266.1107693009981,None,right,1,1.7334764050028753,266.1107693009981,None,,,,,,,,,,,,,,,,,,,,,,,,,,,,,,,,,,,,,,,,,,1,00,m,2021_Apr_09_1709,ldt_en_hi,2021.1.3,1322.4639122839803,
,,,,adventure,bnat,left,5,,,,,,,,,,,,,0,53,53,62,,,,,,,,,,,,,,,,,,,,,,,,,None,270.57887428499816,None,,,,,,,268.34855740600324,None,268.34855740600324,None,left,1,2.2288599040039117,268.34855740600324,None,,,,,,,,,,,,,,,,,,,,,,,,,,,,,,,,,,,,,,,,,,1,00,m,2021_Apr_09_1709,ldt_en_hi,2021.1.3,1322.4639122839803,
,,,,sister,brother,right,1,,,,,,,,,,,,,0,54,54,13,,,,,,,,,,,,,,,,,,,,,,,,,None,271.85083240699896,None,,,,,,,271.0818185300013,None,271.0818185300013,None,right,1,0.7673160749982344,271.0818185300013,None,,,,,,,,,,,,,,,,,,,,,,,,,,,,,,,,,,,,,,,,,,1,00,m,2021_Apr_09_1709,ldt_en_hi,2021.1.3,1322.4639122839803,
,,,,invent,ceok,left,5,,,,,,,,,,,,,0,55,55,53,,,,,,,,,,,,,,,,,,,,,,,,,None,273.469063209006,None,,,,,,,272.35647953199805,None,272.35647953199805,None,left,1,1.1111216870049248,272.35647953199805,None,,,,,,,,,,,,,,,,,,,,,,,,,,,,,,,,,,,,,,,,,,1,00,m,2021_Apr_09_1709,ldt_en_hi,2021.1.3,1322.4639122839803,
,,,,quantyta,berid,left,3,,,,,,,,,,,,,0,56,56,52,,,,,,,,,,,,,,,,,,,,,,,,,None,277.081460166999,None,,,,,,,273.9718750910106,None,273.9718750910106,None,right,0,3.108132512003067,273.9718750910106,None,,,,,,,,,,,,,,,,,,,,,,,,,,,,,,,,,,,,,,,,,,1,00,m,2021_Apr_09_1709,ldt_en_hi,2021.1.3,1322.4639122839803,
,,,,corpse,bigan,left,5,,,,,,,,,,,,,0,57,57,64,,,,,,,,,,,,,,,,,,,,,,,,,None,282.6894181509997,None,,,,,,,277.58470230300736,None,277.58470230300736,None,right,0,5.103255606998573,277.58470230300736,None,,,,,,,,,,,,,,,,,,,,,,,,,,,,,,,,,,,,,,,,,,1,00,m,2021_Apr_09_1709,ldt_en_hi,2021.1.3,1322.4639122839803,
,,,,mute,bygknner,left,5,,,,,,,,,,,,,0,58,58,65,,,,,,,,,,,,,,,,,,,,,,,,,None,284.56231028299953,None,,,,,,,283.1924132109998,None,283.1924132109998,None,left,1,1.3684435129980557,283.1924132109998,None,,,,,,,,,,,,,,,,,,,,,,,,,,,,,,,,,,,,,,,,,,1,00,m,2021_Apr_09_1709,ldt_en_hi,2021.1.3,1322.4639122839803,
,,,,kitchen,cook,right,1,,,,,,,,,,,,,0,59,59,17,,,,,,,,,,,,,,,,,,,,,,,,,None,286.5138666760031,None,,,,,,,285.0649871180067,None,285.0649871180067,None,right,1,1.4474138539953856,285.0649871180067,None,,,,,,,,,,,,,,,,,,,,,,,,,,,,,,,,,,,,,,,,,,1,00,m,2021_Apr_09_1709,ldt_en_hi,2021.1.3,1322.4639122839803,
,,,,continent,africa,right,1,,,,,,,,,,,,,0,60,60,2,,,,,,,,,,,,,,,,,,,,,,,,,None,287.84692802801146,None,,,,,,,287.01652422201005,None,287.01652422201005,None,right,1,0.8289804490050301,287.01652422201005,None,,,,,,,,,,,,,,,,,,,,,,,,,,,,,,,,,,,,,,,,,,1,00,m,2021_Apr_09_1709,ldt_en_hi,2021.1.3,1322.4639122839803,
,,,,subtraction,addition,right,1,,,,,,,,,,,,,0,61,61,1,,,,,,,,,,,,,,,,,,,,,,,,,None,289.1477301679988,None,,,,,,,288.3503643860022,None,288.3503643860022,None,right,1,0.7958191320067272,288.3503643860022,None,,,,,,,,,,,,,,,,,,,,,,,,,,,,,,,,,,,,,,,,,,1,00,m,2021_Apr_09_1709,ldt_en_hi,2021.1.3,1322.4639122839803,
,,,,quantity,beautiful,right,2,,,,,,,,,,,,,0,62,62,30,,,,,,,,,,,,,,,,,,,,,,,,,None,290.39997814400704,None,,,,,,,289.65075017200434,None,289.65075017200434,None,right,1,0.7478116400016006,289.65075017200434,None,,,,,,,,,,,,,,,,,,,,,,,,,,,,,,,,,,,,,,,,,,1,00,m,2021_Apr_09_1709,ldt_en_hi,2021.1.3,1322.4639122839803,
,,,,entertain,begin,right,2,,,,,,,,,,,,,0,63,63,31,,,,,,,,,,,,,,,,,,,,,,,,,None,291.78736718599976,None,,,,,,,290.9028712440049,None,290.9028712440049,None,right,1,0.8830612930032657,290.9028712440049,None,,,,,,,,,,,,,,,,,,,,,,,,,,,,,,,,,,,,,,,,,,1,00,m,2021_Apr_09_1709,ldt_en_hi,2021.1.3,1322.4639122839803,
,,,,cauliflower,broccoli,right,1,,,,,,,,,,,,,0,64,64,12,,,,,,,,,,,,,,,,,,,,,,,,,None,294.1641530640045,None,,,,,,,292.29076625200105,None,292.29076625200105,None,left,0,1.871968213992659,292.29076625200105,None,,,,,,,,,,,,,,,,,,,,,,,,,,,,,,,,,,,,,,,,,,1,00,m,2021_Apr_09_1709,ldt_en_hi,2021.1.3,1322.4639122839803,
,,,,actress,actor,right,1,,,,,,,,,,,,,0,65,65,0,,,,,,,,,,,,,,,,,,,,,,,,,None,295.50539569099783,None,,,,,,,294.6672492390062,None,294.6672492390062,None,right,1,0.8364488549996167,294.6672492390062,None,,,,,,,,,,,,,,,,,,,,,,,,,,,,,,,,,,,,,,,,,,1,00,m,2021_Apr_09_1709,ldt_en_hi,2021.1.3,1322.4639122839803,
,,,,cowtnet,freedom,left,4,,,,,,,,,,,,,0,66,66,69,,,,,,,,,,,,,,,,,,,,,,,,,None,300.3021464110061,None,,,,,,,296.00862946700363,None,296.00862946700363,None,left,1,4.292067046000739,296.00862946700363,None,,,,,,,,,,,,,,,,,,,,,,,,,,,,,,,,,,,,,,,,,,1,00,m,2021_Apr_09_1709,ldt_en_hi,2021.1.3,1322.4639122839803,
,,,,lobster,crab,right,1,,,,,,,,,,,,,0,67,67,19,,,,,,,,,,,,,,,,,,,,,,,,,None,301.52005133000785,None,,,,,,,300.80490829799965,None,300.80490829799965,None,right,1,0.7137095529906219,300.80490829799965,None,,,,,,,,,,,,,,,,,,,,,,,,,,,,,,,,,,,,,,,,,,1,00,m,2021_Apr_09_1709,ldt_en_hi,2021.1.3,1322.4639122839803,
,,,,adverb,backpack,right,2,,,,,,,,,,,,,0,68,68,25,,,,,,,,,,,,,,,,,,,,,,,,,None,303.42162294300215,None,,,,,,,302.0229465000011,None,302.0229465000011,None,right,1,1.3972317769948859,302.0229465000011,None,,,,,,,,,,,,,,,,,,,,,,,,,,,,,,,,,,,,,,,,,,1,00,m,2021_Apr_09_1709,ldt_en_hi,2021.1.3,1322.4639122839803,
,,,,magazine,book,right,1,,,,,,,,,,,,,0,69,69,10,,,,,,,,,,,,,,,,,,,,,,,,,None,306.31901031400776,None,,,,,,,303.92432826801087,None,303.92432826801087,None,right,1,2.393234554998344,303.92432826801087,None,,,,,,,,,,,,,,,,,,,,,,,,,,,,,,,,,,,,,,,,,,1,00,m,2021_Apr_09_1709,ldt_en_hi,2021.1.3,1322.4639122839803,
,,,,awareness,base,right,2,,,,,,,,,,,,,0,70,70,28,,,,,,,,,,,,,,,,,,,,,,,,,None,308.3566402400029,None,,,,,,,306.82197443500627,None,306.82197443500627,None,right,1,1.533201944999746,306.82197443500627,None,,,,,,,,,,,,,,,,,,,,,,,,,,,,,,,,,,,,,,,,,,1,00,m,2021_Apr_09_1709,ldt_en_hi,2021.1.3,1322.4639122839803,
,,,,contreqt,bcer,left,3,,,,,,,,,,,,,0,71,71,49,,,,,,,,,,,,,,,,,,,,,,,,,None,311.69517832400743,None,,,,,,,308.8597291920014,None,308.8597291920014,None,left,1,2.833746173986583,308.8597291920014,None,,,,,,,,,,,,,,,,,,,,,,,,,,,,,,,,,,,,,,,,,,1,00,m,2021_Apr_09_1709,ldt_en_hi,2021.1.3,1322.4639122839803,
,,,,blackboard,chalk,right,1,,,,,,,,,,,,,0,72,72,16,,,,,,,,,,,,,,,,,,,,,,,,,None,313.09035870200023,None,,,,,,,312.1979335290089,None,312.1979335290089,None,right,1,0.8909423200093443,312.1979335290089,None,,,,,,,,,,,,,,,,,,,,,,,,,,,,,,,,,,,,,,,,,,1,00,m,2021_Apr_09_1709,ldt_en_hi,2021.1.3,1322.4639122839803,
,,,,fury,beginner,right,2,,,,,,,,,,,,,0,73,73,32,,,,,,,,,,,,,,,,,,,,,,,,,None,314.46156637401145,None,,,,,,,313.5931984150084,None,313.5931984150084,None,right,1,0.8669090150069678,313.5931984150084,None,,,,,,,,,,,,,,,,,,,,,,,,,,,,,,,,,,,,,,,,,,1,00,m,2021_Apr_09_1709,ldt_en_hi,2021.1.3,1322.4639122839803,
,,,,ash,blue,right,2,,,,,,,,,,,,,0,74,74,38,,,,,,,,,,,,,,,,,,,,,,,,,None,315.67207237200637,None,,,,,,,314.9647192359989,None,314.9647192359989,None,right,1,0.7057728449872229,314.9647192359989,None,,,,,,,,,,,,,,,,,,,,,,,,,,,,,,,,,,,,,,,,,,1,00,m,2021_Apr_09_1709,ldt_en_hi,2021.1.3,1322.4639122839803,
,,,,ltbster,lecter,left,3,,,,,,,,,,,,,0,75,75,41,,,,,,,,,,,,,,,,,,,,,,,,,None,320.64928123100253,None,,,,,,,316.1755615740112,None,316.1755615740112,None,left,1,4.472277324995957,316.1755615740112,None,,,,,,,,,,,,,,,,,,,,,,,,,,,,,,,,,,,,,,,,,,1,00,m,2021_Apr_09_1709,ldt_en_hi,2021.1.3,1322.4639122839803,
,,,,buws,decide,left,4,,,,,,,,,,,,,0,76,76,73,,,,,,,,,,,,,,,,,,,,,,,,,None,324.7820125300059,None,,,,,,,321.15200338901195,None,321.15200338901195,None,right,0,3.6282983159908326,321.15200338901195,None,,,,,,,,,,,,,,,,,,,,,,,,,,,,,,,,,,,,,,,,,,1,00,m,2021_Apr_09_1709,ldt_en_hi,2021.1.3,1322.4639122839803,
,,,,ballet,fgor,left,5,,,,,,,,,,,,,0,77,77,60,,,,,,,,,,,,,,,,,,,,,,,,,None,327.96561193000525,None,,,,,,,325.28486378300295,None,325.28486378300295,None,left,1,2.6793080830102554,325.28486378300295,None,,,,,,,,,,,,,,,,,,,,,,,,,,,,,,,,,,,,,,,,,,1,00,m,2021_Apr_09_1709,ldt_en_hi,2021.1.3,1322.4639122839803,
,,,,busy,bored,right,1,,,,,,,,,,,,,0,78,78,11,,,,,,,,,,,,,,,,,,,,,,,,,None,329.1155924920022,None,,,,,,,328.4685044920043,None,328.4685044920043,None,right,1,0.6456437180022476,328.4685044920043,None,,,,,,,,,,,,,,,,,,,,,,,,,,,,,,,,,,,,,,,,,,1,00,m,2021_Apr_09_1709,ldt_en_hi,2021.1.3,1322.4639122839803,
,,,,uneven,dival,left,5,,,,,,,,,,,,,0,79,79,55,,,,,,,,,,,,,,,,,,,,,,,,,None,330.41291667800397,None,,,,,,,329.6189375289978,None,329.6189375289978,None,right,0,0.7925418719969457,329.6189375289978,None,,,,,,,,,,,,,,,,,,,,,,,,,,,,,,,,,,,,,,,,,,1,00,m,2021_Apr_09_1709,ldt_en_hi,2021.1.3,1322.4639122839803,
,,,,dasewn,ufraca,left,3,,,,,,,,,,,,,1,0,80,43,,,,,,,,,,,,,,,,,,,,,,,,,None,332.07087867500377,None,,,,,,,330.91575233500043,None,330.91575233500043,None,left,1,1.1536532699974487,330.91575233500043,None,,,,,,,,,,,,,,,,,,,,,,,,,,,,,,,,,,,,,,,,,,1,00,m,2021_Apr_09_1709,ldt_en_hi,2021.1.3,1322.4639122839803,
,,,,adventure,bnat,left,5,,,,,,,,,,,,,1,1,81,62,,,,,,,,,,,,,,,,,,,,,,,,,None,334.42936020399793,None,,,,,,,332.574114743009,None,332.574114743009,None,left,1,1.8537968729942804,332.574114743009,None,,,,,,,,,,,,,,,,,,,,,,,,,,,,,,,,,,,,,,,,,,1,00,m,2021_Apr_09_1709,ldt_en_hi,2021.1.3,1322.4639122839803,
,,,,actor,axe,right,2,,,,,,,,,,,,,1,2,82,24,,,,,,,,,,,,,,,,,,,,,,,,,None,335.7380489490024,None,,,,,,,334.9325525000022,None,334.9325525000022,None,right,1,0.8040089690039167,334.9325525000022,None,,,,,,,,,,,,,,,,,,,,,,,,,,,,,,,,,,,,,,,,,,1,00,m,2021_Apr_09_1709,ldt_en_hi,2021.1.3,1322.4639122839803,
,,,,antidote,averake,left,5,,,,,,,,,,,,,1,3,83,58,,,,,,,,,,,,,,,,,,,,,,,,,None,337.6587873940007,None,,,,,,,336.24086327900295,None,336.24086327900295,None,right,0,1.4164732950011967,336.24086327900295,None,,,,,,,,,,,,,,,,,,,,,,,,,,,,,,,,,,,,,,,,,,1,00,m,2021_Apr_09_1709,ldt_en_hi,2021.1.3,1322.4639122839803,
,,,,saucer,uttac,left,5,,,,,,,,,,,,,1,4,84,57,,,,,,,,,,,,,,,,,,,,,,,,,None,341.7736181640066,None,,,,,,,338.1615034950082,None,338.1615034950082,None,right,0,3.6103241680102656,338.1615034950082,None,,,,,,,,,,,,,,,,,,,,,,,,,,,,,,,,,,,,,,,,,,1,00,m,2021_Apr_09_1709,ldt_en_hi,2021.1.3,1322.4639122839803,
,,,,kitchen,cook,right,1,,,,,,,,,,,,,1,5,85,17,,,,,,,,,,,,,,,,,,,,,,,,,None,342.97111257399956,None,,,,,,,342.276293272007,None,342.276293272007,None,right,1,0.6933456489932723,342.276293272007,None,,,,,,,,,,,,,,,,,,,,,,,,,,,,,,,,,,,,,,,,,,1,00,m,2021_Apr_09_1709,ldt_en_hi,2021.1.3,1322.4639122839803,
,,,,perigrm,unswir,left,3,,,,,,,,,,,,,1,6,86,45,,,,,,,,,,,,,,,,,,,,,,,,,None,346.2247166169982,None,,,,,,,343.47378897000453,None,343.47378897000453,None,left,1,2.749459972998011,343.47378897000453,None,,,,,,,,,,,,,,,,,,,,,,,,,,,,,,,,,,,,,,,,,,1,00,m,2021_Apr_09_1709,ldt_en_hi,2021.1.3,1322.4639122839803,
,,,,harmful,cownr,left,5,,,,,,,,,,,,,1,7,87,61,,,,,,,,,,,,,,,,,,,,,,,,,None,348.4576567680051,None,,,,,,,346.7279685810063,None,346.7279685810063,None,right,0,1.728136227990035,346.7279685810063,None,,,,,,,,,,,,,,,,,,,,,,,,,,,,,,,,,,,,,,,,,,1,00,m,2021_Apr_09_1709,ldt_en_hi,2021.1.3,1322.4639122839803,
,,,,blackboard,chalk,right,1,,,,,,,,,,,,,1,8,88,16,,,,,,,,,,,,,,,,,,,,,,,,,None,350.9954211620061,None,,,,,,,348.9610404460109,None,348.9610404460109,None,right,1,2.0329113399930065,348.9610404460109,None,,,,,,,,,,,,,,,,,,,,,,,,,,,,,,,,,,,,,,,,,,1,00,m,2021_Apr_09_1709,ldt_en_hi,2021.1.3,1322.4639122839803,
,,,,capmpiwity,nney,left,3,,,,,,,,,,,,,1,9,89,44,,,,,,,,,,,,,,,,,,,,,,,,,None,352.81081948000065,None,,,,,,,351.49842233399977,None,351.49842233399977,None,left,1,1.310923768003704,351.49842233399977,None,,,,,,,,,,,,,,,,,,,,,,,,,,,,,,,,,,,,,,,,,,1,00,m,2021_Apr_09_1709,ldt_en_hi,2021.1.3,1322.4639122839803,
,,,,tumor,cancer,right,1,,,,,,,,,,,,,1,10,90,14,,,,,,,,,,,,,,,,,,,,,,,,,None,354.14114920700376,None,,,,,,,353.3139437200007,None,353.3139437200007,None,right,1,0.8257635930058314,353.3139437200007,None,,,,,,,,,,,,,,,,,,,,,,,,,,,,,,,,,,,,,,,,,,1,00,m,2021_Apr_09_1709,ldt_en_hi,2021.1.3,1322.4639122839803,
,,,,udvirb,prew,left,3,,,,,,,,,,,,,1,11,91,47,,,,,,,,,,,,,,,,,,,,,,,,,None,357.68878418800887,None,,,,,,,354.6444818260061,None,354.6444818260061,None,left,1,3.04261458099063,354.6444818260061,None,,,,,,,,,,,,,,,,,,,,,,,,,,,,,,,,,,,,,,,,,,1,00,m,2021_Apr_09_1709,ldt_en_hi,2021.1.3,1322.4639122839803,
,,,,aczreis,duty,left,4,,,,,,,,,,,,,1,12,92,67,,,,,,,,,,,,,,,,,,,,,,,,,None,358.992915602008,None,,,,,,,358.1920523220033,None,358.1920523220033,None,right,0,0.799390151994885,358.1920523220033,None,,,,,,,,,,,,,,,,,,,,,,,,,,,,,,,,,,,,,,,,,,1,00,m,2021_Apr_09_1709,ldt_en_hi,2021.1.3,1322.4639122839803,
,,,,subtraction,addition,right,1,,,,,,,,,,,,,1,13,93,1,,,,,,,,,,,,,,,,,,,,,,,,,None,360.3183385739976,None,,,,,,,359.4959435290075,None,359.4959435290075,None,right,1,0.8208041379984934,359.4959435290075,None,,,,,,,,,,,,,,,,,,,,,,,,,,,,,,,,,,,,,,,,,,1,00,m,2021_Apr_09_1709,ldt_en_hi,2021.1.3,1322.4639122839803,
,,,,cricket,blow,right,2,,,,,,,,,,,,,1,14,94,37,,,,,,,,,,,,,,,,,,,,,,,,,None,361.6675551600056,None,,,,,,,360.82122165200417,None,360.82122165200417,None,right,1,0.8448835169983795,360.82122165200417,None,,,,,,,,,,,,,,,,,,,,,,,,,,,,,,,,,,,,,,,,,,1,00,m,2021_Apr_09_1709,ldt_en_hi,2021.1.3,1322.4639122839803,
,,,,perform,average,right,2,,,,,,,,,,,,,1,15,95,23,,,,,,,,,,,,,,,,,,,,,,,,,None,363.05294954300916,None,,,,,,,362.17080147200613,None,362.17080147200613,None,right,1,0.8806559130025562,362.17080147200613,None,,,,,,,,,,,,,,,,,,,,,,,,,,,,,,,,,,,,,,,,,,1,00,m,2021_Apr_09_1709,ldt_en_hi,2021.1.3,1322.4639122839803,
,,,,invent,ceok,left,5,,,,,,,,,,,,,1,16,96,53,,,,,,,,,,,,,,,,,,,,,,,,,None,365.2242363230034,None,,,,,,,363.5557935160032,None,363.5557935160032,None,left,1,1.66701134100731,363.5557935160032,None,,,,,,,,,,,,,,,,,,,,,,,,,,,,,,,,,,,,,,,,,,1,00,m,2021_Apr_09_1709,ldt_en_hi,2021.1.3,1322.4639122839803,
,,,,ash,blue,right,2,,,,,,,,,,,,,1,17,97,38,,,,,,,,,,,,,,,,,,,,,,,,,None,366.3231395470066,None,,,,,,,365.7271654320066,None,365.7271654320066,None,right,1,0.5945030490111094,365.7271654320066,None,,,,,,,,,,,,,,,,,,,,,,,,,,,,,,,,,,,,,,,,,,1,00,m,2021_Apr_09_1709,ldt_en_hi,2021.1.3,1322.4639122839803,
,,,,explanation,answer,right,1,,,,,,,,,,,,,1,18,98,3,,,,,,,,,,,,,,,,,,,,,,,,,None,367.5494802220055,None,,,,,,,366.82590490100847,None,366.82590490100847,None,right,1,0.7221296219940996,366.82590490100847,None,,,,,,,,,,,,,,,,,,,,,,,,,,,,,,,,,,,,,,,,,,1,00,m,2021_Apr_09_1709,ldt_en_hi,2021.1.3,1322.4639122839803,
,,,,busy,bored,right,1,,,,,,,,,,,,,1,19,99,11,,,,,,,,,,,,,,,,,,,,,,,,,None,368.85719019600947,None,,,,,,,368.052544324004,None,368.052544324004,None,right,1,0.8031975620106095,368.052544324004,None,,,,,,,,,,,,,,,,,,,,,,,,,,,,,,,,,,,,,,,,,,1,00,m,2021_Apr_09_1709,ldt_en_hi,2021.1.3,1322.4639122839803,
,,,,awbxenems,belvem,left,3,,,,,,,,,,,,,1,20,100,50,,,,,,,,,,,,,,,,,,,,,,,,,None,371.1814119269984,None,,,,,,,369.36058147699805,None,369.36058147699805,None,left,1,1.8189357770024799,369.36058147699805,None,,,,,,,,,,,,,,,,,,,,,,,,,,,,,,,,,,,,,,,,,,1,00,m,2021_Apr_09_1709,ldt_en_hi,2021.1.3,1322.4639122839803,
,,,,ucter,arks,left,3,,,,,,,,,,,,,1,21,101,46,,,,,,,,,,,,,,,,,,,,,,,,,None,374.785422690009,None,,,,,,,371.68461035500513,None,371.68461035500513,None,left,1,3.0993386740010465,371.68461035500513,None,,,,,,,,,,,,,,,,,,,,,,,,,,,,,,,,,,,,,,,,,,1,00,m,2021_Apr_09_1709,ldt_en_hi,2021.1.3,1322.4639122839803,
,,,,uneven,dival,left,5,,,,,,,,,,,,,1,22,102,55,,,,,,,,,,,,,,,,,,,,,,,,,None,376.7337387669977,None,,,,,,,375.2884224730078,None,375.2884224730078,None,right,0,1.4438205789920175,375.2884224730078,None,,,,,,,,,,,,,,,,,,,,,,,,,,,,,,,,,,,,,,,,,,1,00,m,2021_Apr_09_1709,ldt_en_hi,2021.1.3,1322.4639122839803,
,,,,riject,farm,left,4,,,,,,,,,,,,,1,23,103,66,,,,,,,,,,,,,,,,,,,,,,,,,None,378.8678645629989,None,,,,,,,377.2370434510085,None,377.2370434510085,None,left,1,1.6293455730046844,377.2370434510085,None,,,,,,,,,,,,,,,,,,,,,,,,,,,,,,,,,,,,,,,,,,1,00,m,2021_Apr_09_1709,ldt_en_hi,2021.1.3,1322.4639122839803,
,,,,corpse,bigan,left,5,,,,,,,,,,,,,1,24,104,64,,,,,,,,,,,,,,,,,,,,,,,,,None,381.50149058300303,None,,,,,,,379.37127162700926,None,379.37127162700926,None,right,0,2.128754397010198,379.37127162700926,None,,,,,,,,,,,,,,,,,,,,,,,,,,,,,,,,,,,,,,,,,,1,00,m,2021_Apr_09_1709,ldt_en_hi,2021.1.3,1322.4639122839803,
,,,,displfow,pcycce,left,3,,,,,,,,,,,,,1,25,105,51,,,,,,,,,,,,,,,,,,,,,,,,,None,384.01070755399996,None,,,,,,,382.00438344500435,None,382.00438344500435,None,left,1,2.0048321829963243,382.00438344500435,None,,,,,,,,,,,,,,,,,,,,,,,,,,,,,,,,,,,,,,,,,,1,00,m,2021_Apr_09_1709,ldt_en_hi,2021.1.3,1322.4639122839803,
,,,,mustache,beard,right,1,,,,,,,,,,,,,1,26,106,6,,,,,,,,,,,,,,,,,,,,,,,,,None,385.4949225290038,None,,,,,,,384.5137199210003,None,384.5137199210003,None,right,1,0.9797163220064249,384.5137199210003,None,,,,,,,,,,,,,,,,,,,,,,,,,,,,,,,,,,,,,,,,,,1,00,m,2021_Apr_09_1709,ldt_en_hi,2021.1.3,1322.4639122839803,
,,,,fury,beginner,right,2,,,,,,,,,,,,,1,27,107,32,,,,,,,,,,,,,,,,,,,,,,,,,None,387.7539798180078,None,,,,,,,385.99806186500064,None,385.99806186500064,None,right,1,1.754477330003283,385.99806186500064,None,,,,,,,,,,,,,,,,,,,,,,,,,,,,,,,,,,,,,,,,,,1,00,m,2021_Apr_09_1709,ldt_en_hi,2021.1.3,1322.4639122839803,
,,,,cauliflower,broccoli,right,1,,,,,,,,,,,,,1,28,108,12,,,,,,,,,,,,,,,,,,,,,,,,,None,389.4440335340041,None,,,,,,,388.25722336499894,None,388.25722336499894,None,right,1,1.1850862319988664,388.25722336499894,None,,,,,,,,,,,,,,,,,,,,,,,,,,,,,,,,,,,,,,,,,,1,00,m,2021_Apr_09_1709,ldt_en_hi,2021.1.3,1322.4639122839803,
,,,,anteater,belt,right,2,,,,,,,,,,,,,1,29,109,33,,,,,,,,,,,,,,,,,,,,,,,,,None,390.9838936060114,None,,,,,,,389.94742770300945,None,389.94742770300945,None,right,1,1.0349617170140846,389.94742770300945,None,,,,,,,,,,,,,,,,,,,,,,,,,,,,,,,,,,,,,,,,,,1,00,m,2021_Apr_09_1709,ldt_en_hi,2021.1.3,1322.4639122839803,
,,,,policeman,cop,right,1,,,,,,,,,,,,,1,30,110,18,,,,,,,,,,,,,,,,,,,,,,,,,None,392.4337969850021,None,,,,,,,391.48713132699777,None,391.48713132699777,None,right,1,0.9451913369994145,391.48713132699777,None,,,,,,,,,,,,,,,,,,,,,,,,,,,,,,,,,,,,,,,,,,1,00,m,2021_Apr_09_1709,ldt_en_hi,2021.1.3,1322.4639122839803,
,,,,tricycle,bicycle,right,1,,,,,,,,,,,,,1,31,111,9,,,,,,,,,,,,,,,,,,,,,,,,,None,393.99796689300274,None,,,,,,,392.937172386999,None,392.937172386999,None,right,1,1.059314138998161,392.937172386999,None,,,,,,,,,,,,,,,,,,,,,,,,,,,,,,,,,,,,,,,,,,1,00,m,2021_Apr_09_1709,ldt_en_hi,2021.1.3,1322.4639122839803,
,,,,adorable,bckpwck,left,5,,,,,,,,,,,,,1,32,112,59,,,,,,,,,,,,,,,,,,,,,,,,,None,397.87579845200526,None,,,,,,,394.5010663920111,None,394.5010663920111,None,left,1,3.3732281609991333,394.5010663920111,None,,,,,,,,,,,,,,,,,,,,,,,,,,,,,,,,,,,,,,,,,,1,00,m,2021_Apr_09_1709,ldt_en_hi,2021.1.3,1322.4639122839803,
,,,,disbelieve,believe,right,1,,,,,,,,,,,,,1,33,113,8,,,,,,,,,,,,,,,,,,,,,,,,,None,399.1972345820104,None,,,,,,,398.3788547360018,None,398.3788547360018,None,right,1,0.8168912100081798,398.3788547360018,None,,,,,,,,,,,,,,,,,,,,,,,,,,,,,,,,,,,,,,,,,,1,00,m,2021_Apr_09_1709,ldt_en_hi,2021.1.3,1322.4639122839803,
,,,,ltbster,lecter,left,3,,,,,,,,,,,,,1,34,114,41,,,,,,,,,,,,,,,,,,,,,,,,,None,400.8417203470017,None,,,,,,,399.7007604770042,None,399.7007604770042,None,left,1,1.1394816029933281,399.7007604770042,None,,,,,,,,,,,,,,,,,,,,,,,,,,,,,,,,,,,,,,,,,,1,00,m,2021_Apr_09_1709,ldt_en_hi,2021.1.3,1322.4639122839803,
,,,,lobster,crab,right,1,,,,,,,,,,,,,1,35,115,19,,,,,,,,,,,,,,,,,,,,,,,,,None,402.19334552501095,None,,,,,,,401.34504755900707,None,401.34504755900707,None,right,1,0.8464806509873597,401.34504755900707,None,,,,,,,,,,,,,,,,,,,,,,,,,,,,,,,,,,,,,,,,,,1,00,m,2021_Apr_09_1709,ldt_en_hi,2021.1.3,1322.4639122839803,
,,,,mug,beer,right,1,,,,,,,,,,,,,1,36,116,7,,,,,,,,,,,,,,,,,,,,,,,,,None,404.1075284050021,None,,,,,,,402.6967284440034,None,402.6967284440034,None,right,1,1.4092928219906753,402.6967284440034,None,,,,,,,,,,,,,,,,,,,,,,,,,,,,,,,,,,,,,,,,,,1,00,m,2021_Apr_09_1709,ldt_en_hi,2021.1.3,1322.4639122839803,
,,,,valuabzr,additkos,left,3,,,,,,,,,,,,,1,37,117,42,,,,,,,,,,,,,,,,,,,,,,,,,None,406.2058560620062,None,,,,,,,404.6103953499987,None,404.6103953499987,None,left,1,1.5939830989955226,404.6103953499987,None,,,,,,,,,,,,,,,,,,,,,,,,,,,,,,,,,,,,,,,,,,1,00,m,2021_Apr_09_1709,ldt_en_hi,2021.1.3,1322.4639122839803,
,,,,data,beaufifsl,left,5,,,,,,,,,,,,,1,38,118,63,,,,,,,,,,,,,,,,,,,,,,,,,None,408.54445058701094,None,,,,,,,406.7088706170034,None,406.7088706170034,None,left,1,1.83409044900327,406.7088706170034,None,,,,,,,,,,,,,,,,,,,,,,,,,,,,,,,,,,,,,,,,,,1,00,m,2021_Apr_09_1709,ldt_en_hi,2021.1.3,1322.4639122839803,
,,,,mute,bygknner,left,5,,,,,,,,,,,,,1,39,119,65,,,,,,,,,,,,,,,,,,,,,,,,,None,410.5485476180038,None,,,,,,,409.04726548799954,None,409.04726548799954,None,left,1,1.4995549449959071,409.04726548799954,None,,,,,,,,,,,,,,,,,,,,,,,,,,,,,,,,,,,,,,,,,,1,00,m,2021_Apr_09_1709,ldt_en_hi,2021.1.3,1322.4639122839803,
,,,,suggeyf,biurd,left,3,,,,,,,,,,,,,1,40,120,48,,,,,,,,,,,,,,,,,,,,,,,,,None,413.13415246900695,None,,,,,,,411.0518964310031,None,411.0518964310031,None,left,1,2.080785037993337,411.0518964310031,None,,,,,,,,,,,,,,,,,,,,,,,,,,,,,,,,,,,,,,,,,,1,00,m,2021_Apr_09_1709,ldt_en_hi,2021.1.3,1322.4639122839803,
,,,,ocbohus,bitch,left,4,,,,,,,,,,,,,1,41,121,72,,,,,,,,,,,,,,,,,,,,,,,,,None,415.4040367790003,None,,,,,,,413.63696759101003,None,413.63696759101003,None,left,1,1.7655863910040352,413.63696759101003,None,,,,,,,,,,,,,,,,,,,,,,,,,,,,,,,,,,,,,,,,,,1,00,m,2021_Apr_09_1709,ldt_en_hi,2021.1.3,1322.4639122839803,
,,,,imhge,eyes,left,4,,,,,,,,,,,,,1,42,122,75,,,,,,,,,,,,,,,,,,,,,,,,,None,417.0256688540103,None,,,,,,,415.907505449999,None,415.907505449999,None,left,1,1.1166894229972968,415.907505449999,None,,,,,,,,,,,,,,,,,,,,,,,,,,,,,,,,,,,,,,,,,,1,00,m,2021_Apr_09_1709,ldt_en_hi,2021.1.3,1322.4639122839803,
,,,,entertain,begin,right,2,,,,,,,,,,,,,1,43,123,31,,,,,,,,,,,,,,,,,,,,,,,,,None,418.6760495780036,None,,,,,,,417.5286383890052,None,417.5286383890052,None,right,1,1.1456996070046443,417.5286383890052,None,,,,,,,,,,,,,,,,,,,,,,,,,,,,,,,,,,,,,,,,,,1,00,m,2021_Apr_09_1709,ldt_en_hi,2021.1.3,1322.4639122839803,
,,,,sister,brother,right,1,,,,,,,,,,,,,1,44,124,13,,,,,,,,,,,,,,,,,,,,,,,,,None,419.786712592002,None,,,,,,,419.1790036480088,None,419.1790036480088,None,right,1,0.6062326170067536,419.1790036480088,None,,,,,,,,,,,,,,,,,,,,,,,,,,,,,,,,,,,,,,,,,,1,00,m,2021_Apr_09_1709,ldt_en_hi,2021.1.3,1322.4639122839803,
,,,,disbhvmeve,destroy,left,4,,,,,,,,,,,,,1,45,125,76,,,,,,,,,,,,,,,,,,,,,,,,,None,422.1582894590101,None,,,,,,,420.28966902699904,None,420.28966902699904,None,left,1,1.8671304939925903,420.28966902699904,None,,,,,,,,,,,,,,,,,,,,,,,,,,,,,,,,,,,,,,,,,,1,00,m,2021_Apr_09_1709,ldt_en_hi,2021.1.3,1322.4639122839803,
,,,,busg,data,left,4,,,,,,,,,,,,,1,46,126,78,,,,,,,,,,,,,,,,,,,,,,,,,None,427.21895499101083,None,,,,,,,422.6615066240047,None,422.6615066240047,None,left,1,4.5559078579972265,422.6615066240047,None,,,,,,,,,,,,,,,,,,,,,,,,,,,,,,,,,,,,,,,,,,1,00,m,2021_Apr_09_1709,ldt_en_hi,2021.1.3,1322.4639122839803,
,,,,mabapine,environment,left,4,,,,,,,,,,,,,1,47,127,77,,,,,,,,,,,,,,,,,,,,,,,,,None,428.39039649900224,None,,,,,,,427.72203211400483,None,427.72203211400483,None,right,0,0.6666499999992084,427.72203211400483,None,,,,,,,,,,,,,,,,,,,,,,,,,,,,,,,,,,,,,,,,,,1,00,m,2021_Apr_09_1709,ldt_en_hi,2021.1.3,1322.4639122839803,
,,,,valuable,devil,right,2,,,,,,,,,,,,,1,48,128,20,,,,,,,,,,,,,,,,,,,,,,,,,None,429.7845375510078,None,,,,,,,428.89365632600675,None,428.89365632600675,None,right,1,0.8894055190030485,428.89365632600675,None,,,,,,,,,,,,,,,,,,,,,,,,,,,,,,,,,,,,,,,,,,1,00,m,2021_Apr_09_1709,ldt_en_hi,2021.1.3,1322.4639122839803,
,,,,disagreement,blanket,right,2,,,,,,,,,,,,,1,49,129,36,,,,,,,,,,,,,,,,,,,,,,,,,None,430.9850755189982,None,,,,,,,430.2880409060017,None,430.2880409060017,None,right,1,0.6955632589961169,430.2880409060017,None,,,,,,,,,,,,,,,,,,,,,,,,,,,,,,,,,,,,,,,,,,1,00,m,2021_Apr_09_1709,ldt_en_hi,2021.1.3,1322.4639122839803,
,,,,awareness,base,right,2,,,,,,,,,,,,,1,50,130,28,,,,,,,,,,,,,,,,,,,,,,,,,None,432.2952665530029,None,,,,,,,431.4881792570086,None,431.4881792570086,None,right,1,0.805618491009227,431.4881792570086,None,,,,,,,,,,,,,,,,,,,,,,,,,,,,,,,,,,,,,,,,,,1,00,m,2021_Apr_09_1709,ldt_en_hi,2021.1.3,1322.4639122839803,
,,,,caklqblower,fashion,left,4,,,,,,,,,,,,,1,51,131,79,,,,,,,,,,,,,,,,,,,,,,,,,None,433.4629694160103,None,,,,,,,432.79868142500345,None,432.79868142500345,None,right,0,0.6628188239992596,432.79868142500345,None,,,,,,,,,,,,,,,,,,,,,,,,,,,,,,,,,,,,,,,,,,1,00,m,2021_Apr_09_1709,ldt_en_hi,2021.1.3,1322.4639122839803,
,,,,disallow,beat,right,2,,,,,,,,,,,,,1,52,132,29,,,,,,,,,,,,,,,,,,,,,,,,,None,436.58835073599766,None,,,,,,,433.96590077401197,None,433.96590077401197,None,right,1,2.620961926993914,433.96590077401197,None,,,,,,,,,,,,,,,,,,,,,,,,,,,,,,,,,,,,,,,,,,1,00,m,2021_Apr_09_1709,ldt_en_hi,2021.1.3,1322.4639122839803,
,,,,mgstachi,forest,left,4,,,,,,,,,,,,,1,53,133,74,,,,,,,,,,,,,,,,,,,,,,,,,None,438.20580275300017,None,,,,,,,437.09152868601086,None,437.09152868601086,None,left,1,1.1127933809912065,437.09152868601086,None,,,,,,,,,,,,,,,,,,,,,,,,,,,,,,,,,,,,,,,,,,1,00,m,2021_Apr_09_1709,ldt_en_hi,2021.1.3,1322.4639122839803,
,,,,snuggle,atnton,left,5,,,,,,,,,,,,,1,54,134,56,,,,,,,,,,,,,,,,,,,,,,,,,None,441.0595907759998,None,,,,,,,438.7091126209998,None,438.7091126209998,None,left,1,2.348983442003373,438.7091126209998,None,,,,,,,,,,,,,,,,,,,,,,,,,,,,,,,,,,,,,,,,,,1,00,m,2021_Apr_09_1709,ldt_en_hi,2021.1.3,1322.4639122839803,
,,,,seem,bitch,right,2,,,,,,,,,,,,,1,55,135,34,,,,,,,,,,,,,,,,,,,,,,,,,None,442.6286831190082,None,,,,,,,441.5626436980092,None,441.5626436980092,None,right,1,1.0645311410044087,441.5626436980092,None,,,,,,,,,,,,,,,,,,,,,,,,,,,,,,,,,,,,,,,,,,1,00,m,2021_Apr_09_1709,ldt_en_hi,2021.1.3,1322.4639122839803,
,,,,quantity,beautiful,right,2,,,,,,,,,,,,,1,56,136,30,,,,,,,,,,,,,,,,,,,,,,,,,None,445.07897779199993,None,,,,,,,443.1318241620029,None,443.1318241620029,None,right,1,1.9456446069962112,443.1318241620029,None,,,,,,,,,,,,,,,,,,,,,,,,,,,,,,,,,,,,,,,,,,1,00,m,2021_Apr_09_1709,ldt_en_hi,2021.1.3,1322.4639122839803,
,,,,quantyta,berid,left,3,,,,,,,,,,,,,1,57,137,52,,,,,,,,,,,,,,,,,,,,,,,,,None,447.98582109100244,None,,,,,,,445.58193919900805,None,445.58193919900805,None,left,1,2.402387160997023,445.58193919900805,None,,,,,,,,,,,,,,,,,,,,,,,,,,,,,,,,,,,,,,,,,,1,00,m,2021_Apr_09_1709,ldt_en_hi,2021.1.3,1322.4639122839803,
,,,,contract,bar,right,2,,,,,,,,,,,,,1,58,138,27,,,,,,,,,,,,,,,,,,,,,,,,,None,449.99878158701176,None,,,,,,,448.4888078010117,None,448.4888078010117,None,right,1,1.5084997750091134,448.4888078010117,None,,,,,,,,,,,,,,,,,,,,,,,,,,,,,,,,,,,,,,,,,,1,00,m,2021_Apr_09_1709,ldt_en_hi,2021.1.3,1322.4639122839803,
,,,,actress,actor,right,1,,,,,,,,,,,,,1,59,139,0,,,,,,,,,,,,,,,,,,,,,,,,,None,451.55853183800355,None,,,,,,,450.50220756400086,None,450.50220756400086,None,right,1,1.0548090750089614,450.50220756400086,None,,,,,,,,,,,,,,,,,,,,,,,,,,,,,,,,,,,,,,,,,,1,00,m,2021_Apr_09_1709,ldt_en_hi,2021.1.3,1322.4639122839803,
,,,,poldcemps,uccipt,left,3,,,,,,,,,,,,,1,60,140,40,,,,,,,,,,,,,,,,,,,,,,,,,None,453.6635533689987,None,,,,,,,452.06165991300077,None,452.06165991300077,None,left,1,1.600408950005658,452.06165991300077,None,,,,,,,,,,,,,,,,,,,,,,,,,,,,,,,,,,,,,,,,,,1,00,m,2021_Apr_09_1709,ldt_en_hi,2021.1.3,1322.4639122839803,
,,,,cowtnet,freedom,left,4,,,,,,,,,,,,,1,61,141,69,,,,,,,,,,,,,,,,,,,,,,,,,None,454.85573546000523,None,,,,,,,454.1663349040027,None,454.1663349040027,None,right,0,0.6879239069967298,454.1663349040027,None,,,,,,,,,,,,,,,,,,,,,,,,,,,,,,,,,,,,,,,,,,1,00,m,2021_Apr_09_1709,ldt_en_hi,2021.1.3,1322.4639122839803,
,,,,continent,africa,right,1,,,,,,,,,,,,,1,62,142,2,,,,,,,,,,,,,,,,,,,,,,,,,None,457.40584525000304,None,,,,,,,455.3587566720089,None,455.3587566720089,None,right,1,2.0453365949942963,455.3587566720089,None,,,,,,,,,,,,,,,,,,,,,,,,,,,,,,,,,,,,,,,,,,1,00,m,2021_Apr_09_1709,ldt_en_hi,2021.1.3,1322.4639122839803,
,,,,inventor,leab,left,5,,,,,,,,,,,,,1,63,143,54,,,,,,,,,,,,,,,,,,,,,,,,,None,458.8376254140021,None,,,,,,,457.9093347020098,None,457.9093347020098,None,right,0,0.926771917991573,457.9093347020098,None,,,,,,,,,,,,,,,,,,,,,,,,,,,,,,,,,,,,,,,,,,1,00,m,2021_Apr_09_1709,ldt_en_hi,2021.1.3,1322.4639122839803,
,,,,inquire,blush,right,2,,,,,,,,,,,,,1,64,144,39,,,,,,,,,,,,,,,,,,,,,,,,,None,461.0175777800032,None,,,,,,,459.34109463900677,None,459.34109463900677,None,right,1,1.6749900779977906,459.34109463900677,None,,,,,,,,,,,,,,,,,,,,,,,,,,,,,,,,,,,,,,,,,,1,00,m,2021_Apr_09_1709,ldt_en_hi,2021.1.3,1322.4639122839803,
,,,,stpactin,fear,left,4,,,,,,,,,,,,,1,65,145,68,,,,,,,,,,,,,,,,,,,,,,,,,None,462.196038153008,None,,,,,,,461.52082958701067,None,461.52082958701067,None,right,0,0.6733137569972314,461.52082958701067,None,,,,,,,,,,,,,,,,,,,,,,,,,,,,,,,,,,,,,,,,,,1,00,m,2021_Apr_09_1709,ldt_en_hi,2021.1.3,1322.4639122839803,
,,,,buws,decide,left,4,,,,,,,,,,,,,1,66,146,73,,,,,,,,,,,,,,,,,,,,,,,,,None,466.8506187029998,None,,,,,,,462.6987982910068,None,462.6987982910068,None,right,0,4.150286866002716,462.6987982910068,None,,,,,,,,,,,,,,,,,,,,,,,,,,,,,,,,,,,,,,,,,,1,00,m,2021_Apr_09_1709,ldt_en_hi,2021.1.3,1322.4639122839803,
,,,,adverb,backpack,right,2,,,,,,,,,,,,,1,67,147,25,,,,,,,,,,,,,,,,,,,,,,,,,None,468.57863836899924,None,,,,,,,467.3540249479993,None,467.3540249479993,None,right,1,1.2231004179921001,467.3540249479993,None,,,,,,,,,,,,,,,,,,,,,,,,,,,,,,,,,,,,,,,,,,1,00,m,2021_Apr_09_1709,ldt_en_hi,2021.1.3,1322.4639122839803,
,,,,rug,carpet,right,1,,,,,,,,,,,,,1,68,148,15,,,,,,,,,,,,,,,,,,,,,,,,,None,469.7667934860074,None,,,,,,,469.0818801300047,None,469.0818801300047,None,right,1,0.6834059480024735,469.0818801300047,None,,,,,,,,,,,,,,,,,,,,,,,,,,,,,,,,,,,,,,,,,,1,00,m,2021_Apr_09_1709,ldt_en_hi,2021.1.3,1322.4639122839803,
,,,,magazine,book,right,1,,,,,,,,,,,,,1,69,149,10,,,,,,,,,,,,,,,,,,,,,,,,,None,471.0317157180107,None,,,,,,,470.27014193900686,None,470.27014193900686,None,right,1,0.7601071219978621,470.27014193900686,None,,,,,,,,,,,,,,,,,,,,,,,,,,,,,,,,,,,,,,,,,,1,00,m,2021_Apr_09_1709,ldt_en_hi,2021.1.3,1322.4639122839803,
,,,,bow,arrow,right,1,,,,,,,,,,,,,1,70,150,5,,,,,,,,,,,,,,,,,,,,,,,,,None,472.1020958270092,None,,,,,,,471.53498070000205,None,471.53498070000205,None,right,1,0.5656524959922535,471.53498070000205,None,,,,,,,,,,,,,,,,,,,,,,,,,,,,,,,,,,,,,,,,,,1,00,m,2021_Apr_09_1709,ldt_en_hi,2021.1.3,1322.4639122839803,
,,,,exdlavstion,cloth,left,4,,,,,,,,,,,,,1,71,151,71,,,,,,,,,,,,,,,,,,,,,,,,,None,473.19566460500937,None,,,,,,,472.60506687199813,None,472.60506687199813,None,right,0,0.5890680960001191,472.60506687199813,None,,,,,,,,,,,,,,,,,,,,,,,,,,,,,,,,,,,,,,,,,,1,00,m,2021_Apr_09_1709,ldt_en_hi,2021.1.3,1322.4639122839803,
,,,,frugtry,cheat,left,4,,,,,,,,,,,,,1,72,152,70,,,,,,,,,,,,,,,,,,,,,,,,,None,478.0193863410095,None,,,,,,,473.69901749100245,None,473.69901749100245,None,left,1,4.318888319990947,473.69901749100245,None,,,,,,,,,,,,,,,,,,,,,,,,,,,,,,,,,,,,,,,,,,1,00,m,2021_Apr_09_1709,ldt_en_hi,2021.1.3,1322.4639122839803,
,,,,ballet,fgor,left,5,,,,,,,,,,,,,1,73,153,60,,,,,,,,,,,,,,,,,,,,,,,,,None,481.2243934930011,None,,,,,,,478.52237848599907,None,478.52237848599907,None,left,1,2.700547437998466,478.52237848599907,None,,,,,,,,,,,,,,,,,,,,,,,,,,,,,,,,,,,,,,,,,,1,00,m,2021_Apr_09_1709,ldt_en_hi,2021.1.3,1322.4639122839803,
,,,,disown,atom,right,2,,,,,,,,,,,,,1,74,154,21,,,,,,,,,,,,,,,,,,,,,,,,,None,482.5681057699985,None,,,,,,,481.7276925519982,None,481.7276925519982,None,right,1,0.8386774099926697,481.7276925519982,None,,,,,,,,,,,,,,,,,,,,,,,,,,,,,,,,,,,,,,,,,,1,00,m,2021_Apr_09_1709,ldt_en_hi,2021.1.3,1322.4639122839803,
,,,,capability,attic,right,2,,,,,,,,,,,,,1,75,155,22,,,,,,,,,,,,,,,,,,,,,,,,,None,484.545553494012,None,,,,,,,483.0710625940119,None,483.0710625940119,None,left,0,1.472992687005899,483.0710625940119,None,,,,,,,,,,,,,,,,,,,,,,,,,,,,,,,,,,,,,,,,,,1,00,m,2021_Apr_09_1709,ldt_en_hi,2021.1.3,1322.4639122839803,
,,,,region,blame,right,2,,,,,,,,,,,,,1,76,156,35,,,,,,,,,,,,,,,,,,,,,,,,,None,485.69347560900496,None,,,,,,,485.04896464200283,None,485.04896464200283,None,right,1,0.6429961019894108,485.04896464200283,None,,,,,,,,,,,,,,,,,,,,,,,,,,,,,,,,,,,,,,,,,,1,00,m,2021_Apr_09_1709,ldt_en_hi,2021.1.3,1322.4639122839803,
,,,,contreqt,bcer,left,3,,,,,,,,,,,,,1,77,157,49,,,,,,,,,,,,,,,,,,,,,,,,,None,487.2255785770103,None,,,,,,,486.1970315590006,None,486.1970315590006,None,left,1,1.0267888969974592,486.1970315590006,None,,,,,,,,,,,,,,,,,,,,,,,,,,,,,,,,,,,,,,,,,,1,00,m,2021_Apr_09_1709,ldt_en_hi,2021.1.3,1322.4639122839803,
,,,,suggest,ballet,right,2,,,,,,,,,,,,,1,78,158,26,,,,,,,,,,,,,,,,,,,,,,,,,None,488.7201038880012,None,,,,,,,487.7289716410014,None,487.7289716410014,None,right,1,0.9895118069980526,487.7289716410014,None,,,,,,,,,,,,,,,,,,,,,,,,,,,,,,,,,,,,,,,,,,1,00,m,2021_Apr_09_1709,ldt_en_hi,2021.1.3,1322.4639122839803,
,,,,octopus,arms,right,1,,,,,,,,,,,,,1,79,159,4,,,,,,,,,,,,,,,,,,,,,,,,,None,490.34659088699846,None,,,,,,,489.22325465299946,None,489.22325465299946,None,right,1,1.1218246589996852,489.22325465299946,None,,,,,,,,,,,,,,,,,,,,,,,,,,,,,,,,,,,,,,,,,,1,00,m,2021_Apr_09_1709,ldt_en_hi,2021.1.3,1322.4639122839803,
,,,,,,,,,,,,,,,,,,,,,,,,,,,,,,,,,,,,,,,,,,,,,,,,,,,,,,,,,,,,,,,,,,490.8473956689995,None,right,0,29.902980141996522,490.8473956689995,None,,,,,,,,,,,,,,,,,,,,,,,,,,,,,,,,,,,1,00,m,2021_Apr_09_1709,ldt_en_hi,2021.1.3,1322.4639122839803,
,,,,,,,,नता,babi,left,8,,,,,,,,,,,,,0,0,0,1,,,,,,,,,,,,,,,,,,,,,None,526.1882483820082,None,,,,,,,,,,,,,,,,,,,,,,,520.787589042011,None,520.787589042011,None,left,1,5.39875357899291,520.787589042011,None,,,,,,,,,,,,,,,,,,,,,,,,,,1,00,m,2021_Apr_09_1709,ldt_en_hi,2021.1.3,1322.4639122839803,
,,,,,,,,टराव,explanation,left,9,,,,,,,,,,,,,0,1,1,2,,,,,,,,,,,,,,,,,,,,,None,528.271931167008,None,,,,,,,,,,,,,,,,,,,,,,,526.7177411099983,None,526.7177411099983,None,left,1,1.5527043510082876,526.7177411099983,None,,,,,,,,,,,,,,,,,,,,,,,,,,1,00,m,2021_Apr_09_1709,ldt_en_hi,2021.1.3,1322.4639122839803,
,,,,,,,,नेता,follower,right,6,,,,,,,,,,,,,0,2,2,0,,,,,,,,,,,,,,,,,,,,,None,529.6659760780021,None,,,,,,,,,,,,,,,,,,,,,,,528.7794118239981,None,528.7794118239981,None,right,1,0.8850602729944512,528.7794118239981,None,,,,,,,,,,,,,,,,,,,,,,,,,,1,00,m,2021_Apr_09_1709,ldt_en_hi,2021.1.3,1322.4639122839803,
,,,,,,,,भेंस,imhge,left,10,,,,,,,,,,,,,0,3,3,4,,,,,,,,,,,,,,,,,,,,,None,535.8798839270021,None,,,,,,,,,,,,,,,,,,,,,,,530.1926722130011,None,530.1926722130011,None,left,1,5.685737663006876,530.1926722130011,None,,,,,,,,,,,,,,,,,,,,,,,,,,1,00,m,2021_Apr_09_1709,ldt_en_hi,2021.1.3,1322.4639122839803,
,,,,,,,,मेंढक,deaf,right,7,,,,,,,,,,,,,0,4,4,3,,,,,,,,,,,,,,,,,,,,,None,539.311030516008,None,,,,,,,,,,,,,,,,,,,,,,,536.4175845810096,None,536.4175845810096,None,right,1,2.8919597010099096,536.4175845810096,None,,,,,,,,,,,,,,,,,,,,,,,,,,1,00,m,2021_Apr_09_1709,ldt_en_hi,2021.1.3,1322.4639122839803,
,,,,,,,,,,,,,,,,,,,,,,,,,,,,,,,,,,,,,,,,,,,,,,,,,,,539.8118194330018,None,right,3.6831864710111404,539.8118194330018,None,,,,,,,,,,,,,,,,,,,,,,,,,,,,,,,,,,,,,,,,,,,,,,,,,,,1,00,m,2021_Apr_09_1709,ldt_en_hi,2021.1.3,1322.4639122839803,
,,,,,,,,,,,,घर,blow,right,7,,,,,,,,,,,,,0,0,0,28,,,,,,,,,,,,,,,,,None,545.0817889330065,None,,,,,,,,,,,,,,,,,,,,,,,,,,,,,,,,543.5311665800109,None,543.5311665800109,None,right,1,1.5485868059913628,543.5311665800109,None,,,,,,,,,,,,,,,,,1,00,m,2021_Apr_09_1709,ldt_en_hi,2021.1.3,1322.4639122839803,
,,,,,,,,,,,,गाड़ी,auto,right,6,,,,,,,,,,,,,0,1,1,2,,,,,,,,,,,,,,,,,None,546.4265977270115,None,,,,,,,,,,,,,,,,,,,,,,,,,,,,,,,,545.6176285060064,None,545.6176285060064,None,right,1,0.8074512640014291,545.6176285060064,None,,,,,,,,,,,,,,,,,1,00,m,2021_Apr_09_1709,ldt_en_hi,2021.1.3,1322.4639122839803,
,,,,,,,,,,,,मगरम,bow,left,9,,,,,,,,,,,,,0,2,2,70,,,,,,,,,,,,,,,,,None,550.8359893540037,None,,,,,,,,,,,,,,,,,,,,,,,,,,,,,,,,546.9294516090013,None,546.9294516090013,None,left,1,3.9050653720041737,546.9294516090013,None,,,,,,,,,,,,,,,,,1,00,m,2021_Apr_09_1709,ldt_en_hi,2021.1.3,1322.4639122839803,
,,,,,,,,,,,,केल,fgor,left,8,,,,,,,,,,,,,0,3,3,64,,,,,,,,,,,,,,,,,None,555.5708127060061,None,,,,,,,,,,,,,,,,,,,,,,,,,,,,,,,,551.3522683460033,None,551.3522683460033,None,left,1,4.216780036003911,551.3522683460033,None,,,,,,,,,,,,,,,,,1,00,m,2021_Apr_09_1709,ldt_en_hi,2021.1.3,1322.4639122839803,
,,,,,,,,,,,,यूोप,builde,left,8,,,,,,,,,,,,,0,4,4,55,,,,,,,,,,,,,,,,,None,557.4903706610057,None,,,,,,,,,,,,,,,,,,,,,,,,,,,,,,,,556.1085242710105,None,556.1085242710105,None,left,1,1.3803457890026039,556.1085242710105,None,,,,,,,,,,,,,,,,,1,00,m,2021_Apr_09_1709,ldt_en_hi,2021.1.3,1322.4639122839803,
,,,,,,,,,,,,केल,cauliflower,left,9,,,,,,,,,,,,,0,5,5,73,,,,,,,,,,,,,,,,,None,560.0556725690112,None,,,,,,,,,,,,,,,,,,,,,,,,,,,,,,,,557.9934247080091,None,557.9934247080091,None,right,0,2.060723104994395,557.9934247080091,None,,,,,,,,,,,,,,,,,1,00,m,2021_Apr_09_1709,ldt_en_hi,2021.1.3,1322.4639122839803,
,,,,,,,,,,,,जगल,policeman,left,9,,,,,,,,,,,,,0,6,6,77,,,,,,,,,,,,,,,,,None,565.0205195570015,None,,,,,,,,,,,,,,,,,,,,,,,,,,,,,,,,560.5719823170075,None,560.5719823170075,None,right,0,4.447062863007886,560.5719823170075,None,,,,,,,,,,,,,,,,,1,00,m,2021_Apr_09_1709,ldt_en_hi,2021.1.3,1322.4639122839803,
,,,,,,,,,,,,संट,kitchen,left,9,,,,,,,,,,,,,0,7,7,76,,,,,,,,,,,,,,,,,None,569.8752006770083,None,,,,,,,,,,,,,,,,,,,,,,,,,,,,,,,,565.5237736400013,None,565.5237736400013,None,left,1,4.349910599004943,565.5237736400013,None,,,,,,,,,,,,,,,,,1,00,m,2021_Apr_09_1709,ldt_en_hi,2021.1.3,1322.4639122839803,
,,,,,,,,,,,,सच,copy,right,7,,,,,,,,,,,,,0,8,8,25,,,,,,,,,,,,,,,,,None,571.8176034690114,None,,,,,,,,,,,,,,,,,,,,,,,,,,,,,,,,570.389957300009,None,570.389957300009,None,right,1,1.4261506920011016,570.389957300009,None,,,,,,,,,,,,,,,,,1,00,m,2021_Apr_09_1709,ldt_en_hi,2021.1.3,1322.4639122839803,
,,,,,,,,,,,,अनुबध,leab,left,8,,,,,,,,,,,,,0,9,9,59,,,,,,,,,,,,,,,,,None,576.1299860770087,None,,,,,,,,,,,,,,,,,,,,,,,,,,,,,,,,572.3575484070025,None,572.3575484070025,None,left,1,3.7708781719993567,572.3575484070025,None,,,,,,,,,,,,,,,,,1,00,m,2021_Apr_09_1709,ldt_en_hi,2021.1.3,1322.4639122839803,
,,,,,,,,,,,,जापान,china,right,6,,,,,,,,,,,,,0,10,10,14,,,,,,,,,,,,,,,,,None,577.9114204990037,None,,,,,,,,,,,,,,,,,,,,,,,,,,,,,,,,576.6328537770023,None,576.6328537770023,None,right,1,1.2770633659965824,576.6328537770023,None,,,,,,,,,,,,,,,,,1,00,m,2021_Apr_09_1709,ldt_en_hi,2021.1.3,1322.4639122839803,
,,,,,,,,,,,,परावान,octopus,left,9,,,,,,,,,,,,,0,11,11,69,,,,,,,,,,,,,,,,,None,582.0192411340104,None,,,,,,,,,,,,,,,,,,,,,,,,,,,,,,,,578.4147436460044,None,578.4147436460044,None,right,0,3.6029845160082914,578.4147436460044,None,,,,,,,,,,,,,,,,,1,00,m,2021_Apr_09_1709,ldt_en_hi,2021.1.3,1322.4639122839803,
,,,,,,,,,,,,भीड़,crowd,right,6,,,,,,,,,,,,,0,12,12,17,,,,,,,,,,,,,,,,,None,583.411268625001,None,,,,,,,,,,,,,,,,,,,,,,,,,,,,,,,,582.5224164380052,None,582.5224164380052,None,right,1,0.8873408179933904,582.5224164380052,None,,,,,,,,,,,,,,,,,1,00,m,2021_Apr_09_1709,ldt_en_hi,2021.1.3,1322.4639122839803,
,,,,,,,,,,,,कंबल,poldcemps,left,10,,,,,,,,,,,,,0,13,13,46,,,,,,,,,,,,,,,,,None,586.3060586180072,None,,,,,,,,,,,,,,,,,,,,,,,,,,,,,,,,583.9144256790023,None,583.9144256790023,None,left,1,2.3901111360028153,583.9144256790023,None,,,,,,,,,,,,,,,,,1,00,m,2021_Apr_09_1709,ldt_en_hi,2021.1.3,1322.4639122839803,
,,,,,,,,,,,,लड़की,baby,right,6,,,,,,,,,,,,,0,14,14,3,,,,,,,,,,,,,,,,,None,588.6267635969998,None,,,,,,,,,,,,,,,,,,,,,,,,,,,,,,,,586.8089426140068,None,586.8089426140068,None,right,1,1.8163132140034577,586.8089426140068,None,,,,,,,,,,,,,,,,,1,00,m,2021_Apr_09_1709,ldt_en_hi,2021.1.3,1322.4639122839803,
,,,,,,,,,,,,मदान,gway,left,8,,,,,,,,,,,,,0,15,15,57,,,,,,,,,,,,,,,,,None,591.0922527049988,None,,,,,,,,,,,,,,,,,,,,,,,,,,,,,,,,589.1412128509983,None,589.1412128509983,None,left,1,1.9495244809950236,589.1412128509983,None,,,,,,,,,,,,,,,,,1,00,m,2021_Apr_09_1709,ldt_en_hi,2021.1.3,1322.4639122839803,
,,,,,,,,,,,,टराव,tumor,left,9,,,,,,,,,,,,,0,16,16,68,,,,,,,,,,,,,,,,,None,593.8663800700015,None,,,,,,,,,,,,,,,,,,,,,,,,,,,,,,,,591.5952726219984,None,591.5952726219984,None,left,1,2.2695929690089542,591.5952726219984,None,,,,,,,,,,,,,,,,,1,00,m,2021_Apr_09_1709,ldt_en_hi,2021.1.3,1322.4639122839803,
,,,,,,,,,,,,भावना,employer,right,7,,,,,,,,,,,,,0,17,17,24,,,,,,,,,,,,,,,,,None,595.837220750007,None,,,,,,,,,,,,,,,,,,,,,,,,,,,,,,,,594.3696880630014,None,594.3696880630014,None,right,1,1.4660108630050672,594.3696880630014,None,,,,,,,,,,,,,,,,,1,00,m,2021_Apr_09_1709,ldt_en_hi,2021.1.3,1322.4639122839803,
,,,,,,,,,,,,वन,chaos,right,7,,,,,,,,,,,,,0,18,18,33,,,,,,,,,,,,,,,,,None,597.6875616940088,None,,,,,,,,,,,,,,,,,,,,,,,,,,,,,,,,596.3409113300004,None,596.3409113300004,None,right,1,1.3451568950113142,596.3409113300004,None,,,,,,,,,,,,,,,,,1,00,m,2021_Apr_09_1709,ldt_en_hi,2021.1.3,1322.4639122839803,
,,,,,,,,,,,,परावान,valuable,left,9,,,,,,,,,,,,,0,19,19,79,,,,,,,,,,,,,,,,,None,601.4746137160109,None,,,,,,,,,,,,,,,,,,,,,,,,,,,,,,,,598.1908596130088,None,598.1908596130088,None,left,1,3.2822200499940664,598.1908596130088,None,,,,,,,,,,,,,,,,,1,00,m,2021_Apr_09_1709,ldt_en_hi,2021.1.3,1322.4639122839803,
,,,,,,,,,,,,नक,bnat,left,8,,,,,,,,,,,,,0,20,20,65,,,,,,,,,,,,,,,,,None,604.3831542539992,None,,,,,,,,,,,,,,,,,,,,,,,,,,,,,,,,601.9775678790029,None,601.9775678790029,None,left,1,2.403828110996983,601.9775678790029,None,,,,,,,,,,,,,,,,,1,00,m,2021_Apr_09_1709,ldt_en_hi,2021.1.3,1322.4639122839803,
,,,,,,,,,,,,सावधान,caklqblower,left,10,,,,,,,,,,,,,0,21,21,44,,,,,,,,,,,,,,,,,None,607.1151047140011,None,,,,,,,,,,,,,,,,,,,,,,,,,,,,,,,,604.8863836110104,None,604.8863836110104,None,left,1,2.2271930819988484,604.8863836110104,None,,,,,,,,,,,,,,,,,1,00,m,2021_Apr_09_1709,ldt_en_hi,2021.1.3,1322.4639122839803,
,,,,,,,,,,,,गुफा,perigrm,left,10,,,,,,,,,,,,,0,22,22,51,,,,,,,,,,,,,,,,,None,611.696573994006,None,,,,,,,,,,,,,,,,,,,,,,,,,,,,,,,,607.6316986060119,None,607.6316986060119,None,left,1,4.0633575770043535,607.6316986060119,None,,,,,,,,,,,,,,,,,1,00,m,2021_Apr_09_1709,ldt_en_hi,2021.1.3,1322.4639122839803,
,,,,,,,,,,,,अभिनय,calm,right,7,,,,,,,,,,,,,0,23,23,35,,,,,,,,,,,,,,,,,None,613.4767811700003,None,,,,,,,,,,,,,,,,,,,,,,,,,,,,,,,,612.217455268008,None,612.217455268008,None,right,1,1.2578429669956677,612.217455268008,None,,,,,,,,,,,,,,,,,1,00,m,2021_Apr_09_1709,ldt_en_hi,2021.1.3,1322.4639122839803,
,,,,,,,,,,,,नेता,area,right,7,,,,,,,,,,,,,0,24,24,32,,,,,,,,,,,,,,,,,None,614.9560899760108,None,,,,,,,,,,,,,,,,,,,,,,,,,,,,,,,,613.9799186640012,None,613.9799186640012,None,right,1,0.9746593750023749,613.9799186640012,None,,,,,,,,,,,,,,,,,1,00,m,2021_Apr_09_1709,ldt_en_hi,2021.1.3,1322.4639122839803,
,,,,,,,,,,,,काम,imhge,left,10,,,,,,,,,,,,,0,25,25,40,,,,,,,,,,,,,,,,,None,616.8199851870013,None,,,,,,,,,,,,,,,,,,,,,,,,,,,,,,,,615.4592118770088,None,615.4592118770088,None,left,1,1.3592243519960903,615.4592118770088,None,,,,,,,,,,,,,,,,,1,00,m,2021_Apr_09_1709,ldt_en_hi,2021.1.3,1322.4639122839803,
,,,,,,,,,,,,भगवान,temple,right,6,,,,,,,,,,,,,0,26,26,15,,,,,,,,,,,,,,,,,None,618.3122045250057,None,,,,,,,,,,,,,,,,,,,,,,,,,,,,,,,,617.3239027570089,None,617.3239027570089,None,right,1,0.9868055379920406,617.3239027570089,None,,,,,,,,,,,,,,,,,1,00,m,2021_Apr_09_1709,ldt_en_hi,2021.1.3,1322.4639122839803,
,,,,,,,,,,,,फूल,suggeyf,left,10,,,,,,,,,,,,,0,27,27,53,,,,,,,,,,,,,,,,,None,620.0612021480047,None,,,,,,,,,,,,,,,,,,,,,,,,,,,,,,,,618.8154493199982,None,618.8154493199982,None,left,1,1.244257533995551,618.8154493199982,None,,,,,,,,,,,,,,,,,1,00,m,2021_Apr_09_1709,ldt_en_hi,2021.1.3,1322.4639122839803,
,,,,,,,,,,,,अजमदा,tricycle,left,9,,,,,,,,,,,,,0,28,28,72,,,,,,,,,,,,,,,,,None,622.4860983390099,None,,,,,,,,,,,,,,,,,,,,,,,,,,,,,,,,620.564223813999,None,620.564223813999,None,left,1,1.9203647930116858,620.564223813999,None,,,,,,,,,,,,,,,,,1,00,m,2021_Apr_09_1709,ldt_en_hi,2021.1.3,1322.4639122839803,
,,,,,,,,,,,,सुंदरता,beast,right,6,,,,,,,,,,,,,0,29,29,5,,,,,,,,,,,,,,,,,None,624.3073861770099,None,,,,,,,,,,,,,,,,,,,,,,,,,,,,,,,,622.9889945620089,None,622.9889945620089,None,right,1,1.3169028060074197,622.9889945620089,None,,,,,,,,,,,,,,,,,1,00,m,2021_Apr_09_1709,ldt_en_hi,2021.1.3,1322.4639122839803,
,,,,,,,,,,,,शहनाई,decay,right,7,,,,,,,,,,,,,0,30,30,30,,,,,,,,,,,,,,,,,None,626.266526848005,None,,,,,,,,,,,,,,,,,,,,,,,,,,,,,,,,624.8471969240054,None,624.8471969240054,None,right,1,1.4178129309875658,624.8471969240054,None,,,,,,,,,,,,,,,,,1,00,m,2021_Apr_09_1709,ldt_en_hi,2021.1.3,1322.4639122839803,
,,,,,,,,,,,,गाय,valuabzr,left,10,,,,,,,,,,,,,0,31,31,48,,,,,,,,,,,,,,,,,None,628.1882036430034,None,,,,,,,,,,,,,,,,,,,,,,,,,,,,,,,,626.7700891480054,None,626.7700891480054,None,left,1,1.4166157440049574,626.7700891480054,None,,,,,,,,,,,,,,,,,1,00,m,2021_Apr_09_1709,ldt_en_hi,2021.1.3,1322.4639122839803,
,,,,,,,,,,,,खेती,dollars,right,7,,,,,,,,,,,,,0,32,32,21,,,,,,,,,,,,,,,,,None,629.9709539120086,None,,,,,,,,,,,,,,,,,,,,,,,,,,,,,,,,628.7093843290058,None,628.7093843290058,None,right,1,1.2597659879975254,628.7093843290058,None,,,,,,,,,,,,,,,,,1,00,m,2021_Apr_09_1709,ldt_en_hi,2021.1.3,1322.4639122839803,
,,,,,,,,,,,,पैसे,cash,right,6,,,,,,,,,,,,,0,33,33,12,,,,,,,,,,,,,,,,,None,631.2548096450046,None,,,,,,,,,,,,,,,,,,,,,,,,,,,,,,,,630.4788816010114,None,630.4788816010114,None,right,1,0.774173030993552,630.4788816010114,None,,,,,,,,,,,,,,,,,1,00,m,2021_Apr_09_1709,ldt_en_hi,2021.1.3,1322.4639122839803,
,,,,,,,,,,,,जापान,cheat,right,7,,,,,,,,,,,,,0,34,34,22,,,,,,,,,,,,,,,,,None,632.5795920670062,None,,,,,,,,,,,,,,,,,,,,,,,,,,,,,,,,631.7583712839987,None,631.7583712839987,None,right,1,0.8196868020022521,631.7583712839987,None,,,,,,,,,,,,,,,,,1,00,m,2021_Apr_09_1709,ldt_en_hi,2021.1.3,1322.4639122839803,
,,,,,,,,,,,,आतंकवादी,bomb,right,6,,,,,,,,,,,,,0,35,35,7,,,,,,,,,,,,,,,,,None,634.1864804750076,None,,,,,,,,,,,,,,,,,,,,,,,,,,,,,,,,633.0999602780066,None,633.0999602780066,None,right,1,1.084957951999968,633.0999602780066,None,,,,,,,,,,,,,,,,,1,00,m,2021_Apr_09_1709,ldt_en_hi,2021.1.3,1322.4639122839803,
,,,,,,,,,,,,केला,diary,right,7,,,,,,,,,,,,,0,36,36,37,,,,,,,,,,,,,,,,,None,636.6642540340108,None,,,,,,,,,,,,,,,,,,,,,,,,,,,,,,,,634.690073759004,None,634.690073759004,None,right,1,1.972665909997886,634.690073759004,None,,,,,,,,,,,,,,,,,1,00,m,2021_Apr_09_1709,ldt_en_hi,2021.1.3,1322.4639122839803,
,,,,,,,,,,,,नल,ltbster,left,10,,,,,,,,,,,,,0,37,37,47,,,,,,,,,,,,,,,,,None,638.9878177830105,None,,,,,,,,,,,,,,,,,,,,,,,,,,,,,,,,637.1675866029982,None,637.1675866029982,None,left,1,1.8186869099881733,637.1675866029982,None,,,,,,,,,,,,,,,,,1,00,m,2021_Apr_09_1709,ldt_en_hi,2021.1.3,1322.4639122839803,
,,,,,,,,,,,,खोज,expensive,right,7,,,,,,,,,,,,,0,38,38,29,,,,,,,,,,,,,,,,,None,640.717280101002,None,,,,,,,,,,,,,,,,,,,,,,,,,,,,,,,,639.4914109210076,None,639.4914109210076,None,right,1,1.2243647760042222,639.4914109210076,None,,,,,,,,,,,,,,,,,1,00,m,2021_Apr_09_1709,ldt_en_hi,2021.1.3,1322.4639122839803,
,,,,,,,,,,,,लड़ाकू,boxer,right,6,,,,,,,,,,,,,0,39,39,9,,,,,,,,,,,,,,,,,None,642.4706848110072,None,,,,,,,,,,,,,,,,,,,,,,,,,,,,,,,,641.220261481998,None,641.220261481998,None,right,1,1.2488748989999294,641.220261481998,None,,,,,,,,,,,,,,,,,1,00,m,2021_Apr_09_1709,ldt_en_hi,2021.1.3,1322.4639122839803,
,,,,,,,,,,,,गहना,diamond,right,6,,,,,,,,,,,,,0,40,40,20,,,,,,,,,,,,,,,,,None,644.1928314890101,None,,,,,,,,,,,,,,,,,,,,,,,,,,,,,,,,642.9740508760005,None,642.9740508760005,None,right,1,1.2172803630091948,642.9740508760005,None,,,,,,,,,,,,,,,,,1,00,m,2021_Apr_09_1709,ldt_en_hi,2021.1.3,1322.4639122839803,
,,,,,,,,,,,,महंगा,cheap,right,6,,,,,,,,,,,,,0,41,41,13,,,,,,,,,,,,,,,,,None,645.5473381310003,None,,,,,,,,,,,,,,,,,,,,,,,,,,,,,,,,644.6962138399977,None,644.6962138399977,None,right,1,0.849628815005417,644.6962138399977,None,,,,,,,,,,,,,,,,,1,00,m,2021_Apr_09_1709,ldt_en_hi,2021.1.3,1322.4639122839803,
,,,,,,,,,,,,यूोप,mustache,left,9,,,,,,,,,,,,,0,42,42,71,,,,,,,,,,,,,,,,,None,647.6055177860108,None,,,,,,,,,,,,,,,,,,,,,,,,,,,,,,,,646.0503396830027,None,646.0503396830027,None,left,1,1.5536305920104496,646.0503396830027,None,,,,,,,,,,,,,,,,,1,00,m,2021_Apr_09_1709,ldt_en_hi,2021.1.3,1322.4639122839803,
,,,,,,,,,,,,असमल,beaufifsl,left,8,,,,,,,,,,,,,0,43,43,66,,,,,,,,,,,,,,,,,None,649.3539380620059,None,,,,,,,,,,,,,,,,,,,,,,,,,,,,,,,,648.1091480280011,None,648.1091480280011,None,left,1,1.2432842039997922,648.1091480280011,None,,,,,,,,,,,,,,,,,1,00,m,2021_Apr_09_1709,ldt_en_hi,2021.1.3,1322.4639122839803,
,,,,,,,,,,,,वकी,averake,left,8,,,,,,,,,,,,,0,44,44,63,,,,,,,,,,,,,,,,,None,651.8889997210063,None,,,,,,,,,,,,,,,,,,,,,,,,,,,,,,,,649.8575173389982,None,649.8575173389982,None,left,1,2.0299873879994266,649.8575173389982,None,,,,,,,,,,,,,,,,,1,00,m,2021_Apr_09_1709,ldt_en_hi,2021.1.3,1322.4639122839803,
,,,,,,,,,,,,पागल,crazy,right,6,,,,,,,,,,,,,0,45,45,16,,,,,,,,,,,,,,,,,None,653.222823035001,None,,,,,,,,,,,,,,,,,,,,,,,,,,,,,,,,652.3925482560007,None,652.3925482560007,None,right,1,0.8287563159974525,652.3925482560007,None,,,,,,,,,,,,,,,,,1,00,m,2021_Apr_09_1709,ldt_en_hi,2021.1.3,1322.4639122839803,
,,,,,,,,,,,,जोकर,eyes,right,7,,,,,,,,,,,,,0,46,46,38,,,,,,,,,,,,,,,,,None,655.1859822420083,None,,,,,,,,,,,,,,,,,,,,,,,,,,,,,,,,653.7257901520061,None,653.7257901520061,None,right,1,1.458645994993276,653.7257901520061,None,,,,,,,,,,,,,,,,,1,00,m,2021_Apr_09_1709,ldt_en_hi,2021.1.3,1322.4639122839803,
,,,,,,,,,,,,कोमल,cure,right,7,,,,,,,,,,,,,0,47,47,34,,,,,,,,,,,,,,,,,None,657.3735926240042,None,,,,,,,,,,,,,,,,,,,,,,,,,,,,,,,,655.689071248009,None,655.689071248009,None,right,1,1.6829687870049383,655.689071248009,None,,,,,,,,,,,,,,,,,1,00,m,2021_Apr_09_1709,ldt_en_hi,2021.1.3,1322.4639122839803,
,,,,,,,,,,,,मैदान,blush,right,7,,,,,,,,,,,,,0,48,48,26,,,,,,,,,,,,,,,,,None,658.8166426149983,None,,,,,,,,,,,,,,,,,,,,,,,,,,,,,,,,657.8765077110002,None,657.8765077110002,None,right,1,0.9386152380029671,657.8765077110002,None,,,,,,,,,,,,,,,,,1,00,m,2021_Apr_09_1709,ldt_en_hi,2021.1.3,1322.4639122839803,
,,,,,,,,,,,,बाइन,atnton,left,8,,,,,,,,,,,,,0,49,49,61,,,,,,,,,,,,,,,,,None,661.290243719006,None,,,,,,,,,,,,,,,,,,,,,,,,,,,,,,,,659.3312594960007,None,659.3312594960007,None,left,1,1.9574737770017236,659.3312594960007,None,,,,,,,,,,,,,,,,,1,00,m,2021_Apr_09_1709,ldt_en_hi,2021.1.3,1322.4639122839803,
,,,,,,,,,,,,सलाह,mabapine,left,10,,,,,,,,,,,,,0,50,50,42,,,,,,,,,,,,,,,,,None,665.6145024200086,None,,,,,,,,,,,,,,,,,,,,,,,,,,,,,,,,661.7932316920051,None,661.7932316920051,None,right,0,3.819671864999691,661.7932316920051,None,,,,,,,,,,,,,,,,,1,00,m,2021_Apr_09_1709,ldt_en_hi,2021.1.3,1322.4639122839803,
,,,,,,,,,,,,गेंद,bat,right,6,,,,,,,,,,,,,0,51,51,4,,,,,,,,,,,,,,,,,None,667.3859879780066,None,,,,,,,,,,,,,,,,,,,,,,,,,,,,,,,,666.1177447640075,None,666.1177447640075,None,right,1,1.2666986900003394,666.1177447640075,None,,,,,,,,,,,,,,,,,1,00,m,2021_Apr_09_1709,ldt_en_hi,2021.1.3,1322.4639122839803,
,,,,,,,,,,,,लड़की,boy,right,6,,,,,,,,,,,,,0,52,52,10,,,,,,,,,,,,,,,,,None,668.8212316429999,None,,,,,,,,,,,,,,,,,,,,,,,,,,,,,,,,667.8893532049988,None,667.8893532049988,None,right,1,0.9300102660054108,667.8893532049988,None,,,,,,,,,,,,,,,,,1,00,m,2021_Apr_09_1709,ldt_en_hi,2021.1.3,1322.4639122839803,
,,,,,,,,,,,,पतल,dival,left,8,,,,,,,,,,,,,0,53,53,60,,,,,,,,,,,,,,,,,None,671.9391762300074,None,,,,,,,,,,,,,,,,,,,,,,,,,,,,,,,,669.3243589839985,None,669.3243589839985,None,right,0,2.613298982003471,669.3243589839985,None,,,,,,,,,,,,,,,,,1,00,m,2021_Apr_09_1709,ldt_en_hi,2021.1.3,1322.4639122839803,
,,,,,,,,,,,,अनाज,breakfast,right,6,,,,,,,,,,,,,0,54,54,11,,,,,,,,,,,,,,,,,None,673.2819498169993,None,,,,,,,,,,,,,,,,,,,,,,,,,,,,,,,,672.4421448619978,None,672.4421448619978,None,right,1,0.838276169000892,672.4421448619978,None,,,,,,,,,,,,,,,,,1,00,m,2021_Apr_09_1709,ldt_en_hi,2021.1.3,1322.4639122839803,
,,,,,,,,,,,,मगरम,hodker,left,8,,,,,,,,,,,,,0,55,55,54,,,,,,,,,,,,,,,,,None,675.9696491950017,None,,,,,,,,,,,,,,,,,,,,,,,,,,,,,,,,673.7853686720046,None,673.7853686720046,None,left,1,2.1827238210098585,673.7853686720046,None,,,,,,,,,,,,,,,,,1,00,m,2021_Apr_09_1709,ldt_en_hi,2021.1.3,1322.4639122839803,
,,,,,,,,,,,,बहस,blaokbonvd,left,10,,,,,,,,,,,,,0,56,56,45,,,,,,,,,,,,,,,,,None,679.0202590210101,None,,,,,,,,,,,,,,,,,,,,,,,,,,,,,,,,676.4726439110091,None,676.4726439110091,None,left,1,2.5458922190009616,676.4726439110091,None,,,,,,,,,,,,,,,,,1,00,m,2021_Apr_09_1709,ldt_en_hi,2021.1.3,1322.4639122839803,
,,,,,,,,,,,,तीर,bow,right,6,,,,,,,,,,,,,0,57,57,8,,,,,,,,,,,,,,,,,None,680.4774177159998,None,,,,,,,,,,,,,,,,,,,,,,,,,,,,,,,,679.5236568330001,None,679.5236568330001,None,right,1,0.9522541460028151,679.5236568330001,None,,,,,,,,,,,,,,,,,1,00,m,2021_Apr_09_1709,ldt_en_hi,2021.1.3,1322.4639122839803,
,,,,,,,,,,,,मेंढक,doe,right,7,,,,,,,,,,,,,0,58,58,36,,,,,,,,,,,,,,,,,None,682.9553947200038,None,,,,,,,,,,,,,,,,,,,,,,,,,,,,,,,,680.9807246960117,None,680.9807246960117,None,right,1,1.9731273939978564,680.9807246960117,None,,,,,,,,,,,,,,,,,1,00,m,2021_Apr_09_1709,ldt_en_hi,2021.1.3,1322.4639122839803,
,,,,,,,,,,,,संट,subtraction,left,9,,,,,,,,,,,,,0,59,59,67,,,,,,,,,,,,,,,,,None,684.477778526998,None,,,,,,,,,,,,,,,,,,,,,,,,,,,,,,,,683.4588067139994,None,683.4588067139994,None,left,1,1.017445885008783,683.4588067139994,None,,,,,,,,,,,,,,,,,1,00,m,2021_Apr_09_1709,ldt_en_hi,2021.1.3,1322.4639122839803,
,,,,,,,,,,,,गहा,chulk,left,8,,,,,,,,,,,,,0,60,60,56,,,,,,,,,,,,,,,,,None,688.2422036950011,None,,,,,,,,,,,,,,,,,,,,,,,,,,,,,,,,684.98118878901,None,684.98118878901,None,left,1,3.2594507340108976,684.98118878901,None,,,,,,,,,,,,,,,,,1,00,m,2021_Apr_09_1709,ldt_en_hi,2021.1.3,1322.4639122839803,
,,,,,,,,,,,,बातचीत,busg,left,10,,,,,,,,,,,,,0,61,61,43,,,,,,,,,,,,,,,,,None,690.2724033880077,None,,,,,,,,,,,,,,,,,,,,,,,,,,,,,,,,688.7452125999989,None,688.7452125999989,None,left,1,1.5256422070087865,688.7452125999989,None,,,,,,,,,,,,,,,,,1,00,m,2021_Apr_09_1709,ldt_en_hi,2021.1.3,1322.4639122839803,
,,,,,,,,,,,,टराव,lobster,left,9,,,,,,,,,,,,,0,62,62,78,,,,,,,,,,,,,,,,,None,692.1391877060087,None,,,,,,,,,,,,,,,,,,,,,,,,,,,,,,,,690.7760337920045,None,690.7760337920045,None,right,0,1.3616518580092816,690.7760337920045,None,,,,,,,,,,,,,,,,,1,00,m,2021_Apr_09_1709,ldt_en_hi,2021.1.3,1322.4639122839803,
,,,,,,,,,,,,गायक,dancer,right,6,,,,,,,,,,,,,0,63,63,18,,,,,,,,,,,,,,,,,None,694.4210316640092,None,,,,,,,,,,,,,,,,,,,,,,,,,,,,,,,,692.6420340570039,None,692.6420340570039,None,right,1,1.7774817750032526,692.6420340570039,None,,,,,,,,,,,,,,,,,1,00,m,2021_Apr_09_1709,ldt_en_hi,2021.1.3,1322.4639122839803,
,,,,,,,,,,,,गणित,biology,right,6,,,,,,,,,,,,,0,64,64,6,,,,,,,,,,,,,,,,,None,697.6953958130034,None,,,,,,,,,,,,,,,,,,,,,,,,,,,,,,,,694.9434387880028,None,694.9434387880028,None,left,0,2.7504043119988637,694.9434387880028,None,,,,,,,,,,,,,,,,,1,00,m,2021_Apr_09_1709,ldt_en_hi,2021.1.3,1322.4639122839803,
,,,,,,,,,,,,आतंक,average,right,7,,,,,,,,,,,,,0,65,65,23,,,,,,,,,,,,,,,,,None,699.3081283280044,None,,,,,,,,,,,,,,,,,,,,,,,,,,,,,,,,698.198563553,None,698.198563553,None,right,1,1.1080229329963913,698.198563553,None,,,,,,,,,,,,,,,,,1,00,m,2021_Apr_09_1709,ldt_en_hi,2021.1.3,1322.4639122839803,
,,,,,,,,,,,,अभिनय,disbhvmeve,left,10,,,,,,,,,,,,,0,66,66,41,,,,,,,,,,,,,,,,,None,701.709669037009,None,,,,,,,,,,,,,,,,,,,,,,,,,,,,,,,,699.8113684990094,None,699.8113684990094,None,left,1,1.8967754149925895,699.8113684990094,None,,,,,,,,,,,,,,,,,1,00,m,2021_Apr_09_1709,ldt_en_hi,2021.1.3,1322.4639122839803,
,,,,,,,,,,,,सावधान,capmpiwity,left,10,,,,,,,,,,,,,0,67,67,50,,,,,,,,,,,,,,,,,None,703.8896518340043,None,,,,,,,,,,,,,,,,,,,,,,,,,,,,,,,,702.2129152630077,None,702.2129152630077,None,left,1,1.6751924300042447,702.2129152630077,None,,,,,,,,,,,,,,,,,1,00,m,2021_Apr_09_1709,ldt_en_hi,2021.1.3,1322.4639122839803,
,,,,,,,,,,,,हानि,deaf,right,7,,,,,,,,,,,,,0,68,68,39,,,,,,,,,,,,,,,,,None,705.988449440003,None,,,,,,,,,,,,,,,,,,,,,,,,,,,,,,,,704.3932715940027,None,704.3932715940027,None,left,0,1.5936306520015933,704.3932715940027,None,,,,,,,,,,,,,,,,,1,00,m,2021_Apr_09_1709,ldt_en_hi,2021.1.3,1322.4639122839803,
,,,,,,,,,,,,असमल,rug,left,9,,,,,,,,,,,,,0,69,69,74,,,,,,,,,,,,,,,,,None,709.567909838006,None,,,,,,,,,,,,,,,,,,,,,,,,,,,,,,,,706.4920758080116,None,706.4920758080116,None,left,1,3.074248182005249,706.4920758080116,None,,,,,,,,,,,,,,,,,1,00,m,2021_Apr_09_1709,ldt_en_hi,2021.1.3,1322.4639122839803,
,,,,,,,,,,,,मछली,ucter,left,10,,,,,,,,,,,,,0,70,70,52,,,,,,,,,,,,,,,,,None,712.9411001650005,None,,,,,,,,,,,,,,,,,,,,,,,,,,,,,,,,710.0843788370112,None,710.0843788370112,None,left,1,2.8551735670043854,710.0843788370112,None,,,,,,,,,,,,,,,,,1,00,m,2021_Apr_09_1709,ldt_en_hi,2021.1.3,1322.4639122839803,
,,,,,,,,,,,,सिपाही,empty,right,7,,,,,,,,,,,,,0,71,71,27,,,,,,,,,,,,,,,,,None,715.3724608620105,None,,,,,,,,,,,,,,,,,,,,,,,,,,,,,,,,713.4443193420011,None,713.4443193420011,None,left,0,1.9265556019963697,713.4443193420011,None,,,,,,,,,,,,,,,,,1,00,m,2021_Apr_09_1709,ldt_en_hi,2021.1.3,1322.4639122839803,
,,,,,,,,,,,,साल,age,right,6,,,,,,,,,,,,,0,72,72,0,,,,,,,,,,,,,,,,,None,716.8288963439991,None,,,,,,,,,,,,,,,,,,,,,,,,,,,,,,,,715.8756245500117,None,715.8756245500117,None,right,1,0.9516096570005175,715.8756245500117,None,,,,,,,,,,,,,,,,,1,00,m,2021_Apr_09_1709,ldt_en_hi,2021.1.3,1322.4639122839803,
,,,,,,,,,,,,अपरा,blackboard,left,9,,,,,,,,,,,,,0,73,73,75,,,,,,,,,,,,,,,,,None,719.6421640920016,None,,,,,,,,,,,,,,,,,,,,,,,,,,,,,,,,717.3325196850055,None,717.3325196850055,None,right,0,2.3081202169996686,717.3325196850055,None,,,,,,,,,,,,,,,,,1,00,m,2021_Apr_09_1709,ldt_en_hi,2021.1.3,1322.4639122839803,
,,,,,,,,,,,,विमान,decision,right,7,,,,,,,,,,,,,0,74,74,31,,,,,,,,,,,,,,,,,None,725.6970666650013,None,,,,,,,,,,,,,,,,,,,,,,,,,,,,,,,,720.1451215429988,None,720.1451215429988,None,left,0,5.550431038005627,720.1451215429988,None,,,,,,,,,,,,,,,,,1,00,m,2021_Apr_09_1709,ldt_en_hi,2021.1.3,1322.4639122839803,
,,,,,,,,,,,,अजमदा,uttac,left,8,,,,,,,,,,,,,0,75,75,62,,,,,,,,,,,,,,,,,None,728.5163557970081,None,,,,,,,,,,,,,,,,,,,,,,,,,,,,,,,,726.1999745080102,None,726.1999745080102,None,left,1,2.31462668000313,726.1999745080102,None,,,,,,,,,,,,,,,,,1,00,m,2021_Apr_09_1709,ldt_en_hi,2021.1.3,1322.4639122839803,
,,,,,,,,,,,,गाजर,dasewn,left,10,,,,,,,,,,,,,0,76,76,49,,,,,,,,,,,,,,,,,None,731.3479364430095,None,,,,,,,,,,,,,,,,,,,,,,,,,,,,,,,,729.0197737300041,None,729.0197737300041,None,left,1,2.326619462997769,729.0197737300041,None,,,,,,,,,,,,,,,,,1,00,m,2021_Apr_09_1709,ldt_en_hi,2021.1.3,1322.4639122839803,
,,,,,,,,,,,,शेर,lion,right,6,,,,,,,,,,,,,0,77,77,1,,,,,,,,,,,,,,,,,None,732.5955747650005,None,,,,,,,,,,,,,,,,,,,,,,,,,,,,,,,,731.850984677003,None,731.850984677003,None,right,1,0.7430495849985164,731.850984677003,None,,,,,,,,,,,,,,,,,1,00,m,2021_Apr_09_1709,ldt_en_hi,2021.1.3,1322.4639122839803,
,,,,,,,,,,,,रात,day,right,6,,,,,,,,,,,,,0,78,78,19,,,,,,,,,,,,,,,,,None,734.5949943770102,None,,,,,,,,,,,,,,,,,,,,,,,,,,,,,,,,733.0988863340026,None,733.0988863340026,None,right,1,1.4945243520051008,733.0988863340026,None,,,,,,,,,,,,,,,,,1,00,m,2021_Apr_09_1709,ldt_en_hi,2021.1.3,1322.4639122839803,
,,,,,,,,,,,,नाजु,ceok,left,8,,,,,,,,,,,,,0,79,79,58,,,,,,,,,,,,,,,,,None,740.7517390069988,None,,,,,,,,,,,,,,,,,,,,,,,,,,,,,,,,735.0983541349997,None,735.0983541349997,None,left,1,5.651832452000235,735.0983541349997,None,,,,,,,,,,,,,,,,,1,00,m,2021_Apr_09_1709,ldt_en_hi,2021.1.3,1322.4639122839803,
,,,,,,,,,,,,लड़ाकू,boxer,right,6,,,,,,,,,,,,,1,0,80,9,,,,,,,,,,,,,,,,,None,742.5238525320019,None,,,,,,,,,,,,,,,,,,,,,,,,,,,,,,,,741.2548293330037,None,741.2548293330037,None,right,1,1.2674782399990363,741.2548293330037,None,,,,,,,,,,,,,,,,,1,00,m,2021_Apr_09_1709,ldt_en_hi,2021.1.3,1322.4639122839803,
,,,,,,,,,,,,नक,bnat,left,8,,,,,,,,,,,,,1,1,81,65,,,,,,,,,,,,,,,,,None,744.5862694370007,None,,,,,,,,,,,,,,,,,,,,,,,,,,,,,,,,743.0273155470059,None,743.0273155470059,None,left,1,1.5574025999958394,743.0273155470059,None,,,,,,,,,,,,,,,,,1,00,m,2021_Apr_09_1709,ldt_en_hi,2021.1.3,1322.4639122839803,
,,,,,,,,,,,,शेर,lion,right,6,,,,,,,,,,,,,1,2,82,1,,,,,,,,,,,,,,,,,None,745.8253227410023,None,,,,,,,,,,,,,,,,,,,,,,,,,,,,,,,,745.0893948690064,None,745.0893948690064,None,right,1,0.7343763230019249,745.0893948690064,None,,,,,,,,,,,,,,,,,1,00,m,2021_Apr_09_1709,ldt_en_hi,2021.1.3,1322.4639122839803,
,,,,,,,,,,,,घर,blow,right,7,,,,,,,,,,,,,1,3,83,28,,,,,,,,,,,,,,,,,None,747.1139631190017,None,,,,,,,,,,,,,,,,,,,,,,,,,,,,,,,,746.328509799001,None,746.328509799001,None,right,1,0.7839582079905085,746.328509799001,None,,,,,,,,,,,,,,,,,1,00,m,2021_Apr_09_1709,ldt_en_hi,2021.1.3,1322.4639122839803,
,,,,,,,,,,,,गाय,valuabzr,left,10,,,,,,,,,,,,,1,4,84,48,,,,,,,,,,,,,,,,,None,749.6651848580077,None,,,,,,,,,,,,,,,,,,,,,,,,,,,,,,,,747.617094612011,None,747.617094612011,None,left,1,2.046582558003138,747.617094612011,None,,,,,,,,,,,,,,,,,1,00,m,2021_Apr_09_1709,ldt_en_hi,2021.1.3,1322.4639122839803,
,,,,,,,,,,,,कंबल,poldcemps,left,10,,,,,,,,,,,,,1,5,85,46,,,,,,,,,,,,,,,,,None,753.814151715007,None,,,,,,,,,,,,,,,,,,,,,,,,,,,,,,,,750.1684798500064,None,750.1684798500064,None,left,1,3.644116605995805,750.1684798500064,None,,,,,,,,,,,,,,,,,1,00,m,2021_Apr_09_1709,ldt_en_hi,2021.1.3,1322.4639122839803,
,,,,,,,,,,,,पैसे,cash,right,6,,,,,,,,,,,,,1,6,86,12,,,,,,,,,,,,,,,,,None,755.9722783559992,None,,,,,,,,,,,,,,,,,,,,,,,,,,,,,,,,754.3171557860042,None,754.3171557860042,None,right,1,1.653324856000836,754.3171557860042,None,,,,,,,,,,,,,,,,,1,00,m,2021_Apr_09_1709,ldt_en_hi,2021.1.3,1322.4639122839803,
,,,,,,,,,,,,हानि,deaf,right,7,,,,,,,,,,,,,1,7,87,39,,,,,,,,,,,,,,,,,None,757.3942798350035,None,,,,,,,,,,,,,,,,,,,,,,,,,,,,,,,,756.4753230500064,None,756.4753230500064,None,left,0,0.91739620899898,756.4753230500064,None,,,,,,,,,,,,,,,,,1,00,m,2021_Apr_09_1709,ldt_en_hi,2021.1.3,1322.4639122839803,
,,,,,,,,,,,,यूोप,builde,left,8,,,,,,,,,,,,,1,8,88,55,,,,,,,,,,,,,,,,,None,759.200009860011,None,,,,,,,,,,,,,,,,,,,,,,,,,,,,,,,,757.8979192609986,None,757.8979192609986,None,right,0,1.300295544002438,757.8979192609986,None,,,,,,,,,,,,,,,,,1,00,m,2021_Apr_09_1709,ldt_en_hi,2021.1.3,1322.4639122839803,
,,,,,,,,,,,,मैदान,blush,right,7,,,,,,,,,,,,,1,9,89,26,,,,,,,,,,,,,,,,,None,761.2821077039989,None,,,,,,,,,,,,,,,,,,,,,,,,,,,,,,,,759.7035897510068,None,759.7035897510068,None,right,1,1.5769746090081753,759.7035897510068,None,,,,,,,,,,,,,,,,,1,00,m,2021_Apr_09_1709,ldt_en_hi,2021.1.3,1322.4639122839803,
,,,,,,,,,,,,जापान,cheat,right,7,,,,,,,,,,,,,1,10,90,22,,,,,,,,,,,,,,,,,None,762.6748207290075,None,,,,,,,,,,,,,,,,,,,,,,,,,,,,,,,,761.7852651730063,None,761.7852651730063,None,right,1,0.8880035280017182,761.7852651730063,None,,,,,,,,,,,,,,,,,1,00,m,2021_Apr_09_1709,ldt_en_hi,2021.1.3,1322.4639122839803,
,,,,,,,,,,,,गहा,chulk,left,8,,,,,,,,,,,,,1,11,91,56,,,,,,,,,,,,,,,,,None,765.4874917800043,None,,,,,,,,,,,,,,,,,,,,,,,,,,,,,,,,763.178421804012,None,763.178421804012,None,left,1,2.307514390005963,763.178421804012,None,,,,,,,,,,,,,,,,,1,00,m,2021_Apr_09_1709,ldt_en_hi,2021.1.3,1322.4639122839803,
,,,,,,,,,,,,अनुबध,leab,left,8,,,,,,,,,,,,,1,12,92,59,,,,,,,,,,,,,,,,,None,767.4033808850072,None,,,,,,,,,,,,,,,,,,,,,,,,,,,,,,,,765.9909607660084,None,765.9909607660084,None,right,0,1.41087003199209,765.9909607660084,None,,,,,,,,,,,,,,,,,1,00,m,2021_Apr_09_1709,ldt_en_hi,2021.1.3,1322.4639122839803,
,,,,,,,,,,,,केल,cauliflower,left,9,,,,,,,,,,,,,1,13,93,73,,,,,,,,,,,,,,,,,None,770.045231955999,None,,,,,,,,,,,,,,,,,,,,,,,,,,,,,,,,767.90669759101,None,767.90669759101,None,left,1,2.1369732189923525,767.90669759101,None,,,,,,,,,,,,,,,,,1,00,m,2021_Apr_09_1709,ldt_en_hi,2021.1.3,1322.4639122839803,
,,,,,,,,,,,,लड़की,boy,right,6,,,,,,,,,,,,,1,14,94,10,,,,,,,,,,,,,,,,,None,771.5195157900016,None,,,,,,,,,,,,,,,,,,,,,,,,,,,,,,,,770.5485131980095,None,770.5485131980095,None,right,1,0.9694560659991112,770.5485131980095,None,,,,,,,,,,,,,,,,,1,00,m,2021_Apr_09_1709,ldt_en_hi,2021.1.3,1322.4639122839803,
,,,,,,,,,,,,जापान,china,right,6,,,,,,,,,,,,,1,15,95,14,,,,,,,,,,,,,,,,,None,773.3905076829978,None,,,,,,,,,,,,,,,,,,,,,,,,,,,,,,,,772.0234807649977,None,772.0234807649977,None,right,1,1.3651754560123663,772.0234807649977,None,,,,,,,,,,,,,,,,,1,00,m,2021_Apr_09_1709,ldt_en_hi,2021.1.3,1322.4639122839803,
,,,,,,,,,,,,संट,kitchen,left,9,,,,,,,,,,,,,1,16,96,76,,,,,,,,,,,,,,,,,None,774.9097565300035,None,,,,,,,,,,,,,,,,,,,,,,,,,,,,,,,,773.8941931890004,None,773.8941931890004,None,left,1,1.0140217320004012,773.8941931890004,None,,,,,,,,,,,,,,,,,1,00,m,2021_Apr_09_1709,ldt_en_hi,2021.1.3,1322.4639122839803,
,,,,,,,,,,,,टराव,lobster,left,9,,,,,,,,,,,,,1,17,97,78,,,,,,,,,,,,,,,,,None,776.481981334,None,,,,,,,,,,,,,,,,,,,,,,,,,,,,,,,,775.4134089779982,None,775.4134089779982,None,left,1,1.067030538994004,775.4134089779982,None,,,,,,,,,,,,,,,,,1,00,m,2021_Apr_09_1709,ldt_en_hi,2021.1.3,1322.4639122839803,
,,,,,,,,,,,,गाजर,dasewn,left,10,,,,,,,,,,,,,1,18,98,49,,,,,,,,,,,,,,,,,None,779.0325176220067,None,,,,,,,,,,,,,,,,,,,,,,,,,,,,,,,,776.9855852050096,None,776.9855852050096,None,left,1,2.0451831459940877,776.9855852050096,None,,,,,,,,,,,,,,,,,1,00,m,2021_Apr_09_1709,ldt_en_hi,2021.1.3,1322.4639122839803,
,,,,,,,,,,,,मछली,ucter,left,10,,,,,,,,,,,,,1,19,99,52,,,,,,,,,,,,,,,,,None,780.9587366190099,None,,,,,,,,,,,,,,,,,,,,,,,,,,,,,,,,779.5360935690114,None,779.5360935690114,None,left,1,1.421083080000244,779.5360935690114,None,,,,,,,,,,,,,,,,,1,00,m,2021_Apr_09_1709,ldt_en_hi,2021.1.3,1322.4639122839803,
,,,,,,,,,,,,अनाज,breakfast,right,6,,,,,,,,,,,,,1,20,100,11,,,,,,,,,,,,,,,,,None,782.9583139239985,None,,,,,,,,,,,,,,,,,,,,,,,,,,,,,,,,781.4623726340069,None,781.4623726340069,None,right,1,1.4943946239945944,781.4623726340069,None,,,,,,,,,,,,,,,,,1,00,m,2021_Apr_09_1709,ldt_en_hi,2021.1.3,1322.4639122839803,
,,,,,,,,,,,,सलाह,mabapine,left,10,,,,,,,,,,,,,1,21,101,42,,,,,,,,,,,,,,,,,None,785.1066999610048,None,,,,,,,,,,,,,,,,,,,,,,,,,,,,,,,,783.461317801004,None,783.461317801004,None,right,0,1.6437801900028717,783.461317801004,None,,,,,,,,,,,,,,,,,1,00,m,2021_Apr_09_1709,ldt_en_hi,2021.1.3,1322.4639122839803,
,,,,,,,,,,,,फूल,suggeyf,left,10,,,,,,,,,,,,,1,22,102,53,,,,,,,,,,,,,,,,,None,786.6947410550056,None,,,,,,,,,,,,,,,,,,,,,,,,,,,,,,,,785.6098112610052,None,785.6098112610052,None,left,1,1.0833504589973018,785.6098112610052,None,,,,,,,,,,,,,,,,,1,00,m,2021_Apr_09_1709,ldt_en_hi,2021.1.3,1322.4639122839803,
,,,,,,,,,,,,शहनाई,decay,right,7,,,,,,,,,,,,,1,23,103,30,,,,,,,,,,,,,,,,,None,789.2017369969981,None,,,,,,,,,,,,,,,,,,,,,,,,,,,,,,,,787.1977555379999,None,787.1977555379999,None,right,1,2.002425680999295,787.1977555379999,None,,,,,,,,,,,,,,,,,1,00,m,2021_Apr_09_1709,ldt_en_hi,2021.1.3,1322.4639122839803,
,,,,,,,,,,,,खोज,expensive,right,7,,,,,,,,,,,,,1,24,104,29,,,,,,,,,,,,,,,,,None,790.5005887170119,None,,,,,,,,,,,,,,,,,,,,,,,,,,,,,,,,789.7050532139983,None,789.7050532139983,None,right,1,0.7939905719977105,789.7050532139983,None,,,,,,,,,,,,,,,,,1,00,m,2021_Apr_09_1709,ldt_en_hi,2021.1.3,1322.4639122839803,
,,,,,,,,,,,,टराव,tumor,left,9,,,,,,,,,,,,,1,25,105,68,,,,,,,,,,,,,,,,,None,792.6794111940108,None,,,,,,,,,,,,,,,,,,,,,,,,,,,,,,,,791.003611927008,None,791.003611927008,None,right,0,1.6742599749995861,791.003611927008,None,,,,,,,,,,,,,,,,,1,00,m,2021_Apr_09_1709,ldt_en_hi,2021.1.3,1322.4639122839803,
,,,,,,,,,,,,गणित,biology,right,6,,,,,,,,,,,,,1,26,106,6,,,,,,,,,,,,,,,,,None,794.10521496601,None,,,,,,,,,,,,,,,,,,,,,,,,,,,,,,,,793.1829406809993,None,793.1829406809993,None,left,0,0.9207319560082396,793.1829406809993,None,,,,,,,,,,,,,,,,,1,00,m,2021_Apr_09_1709,ldt_en_hi,2021.1.3,1322.4639122839803,
,,,,,,,,,,,,भीड़,crowd,right,6,,,,,,,,,,,,,1,27,107,17,,,,,,,,,,,,,,,,,None,795.5672225360031,None,,,,,,,,,,,,,,,,,,,,,,,,,,,,,,,,794.608403604012,None,794.608403604012,None,right,1,0.95713845899445,794.608403604012,None,,,,,,,,,,,,,,,,,1,00,m,2021_Apr_09_1709,ldt_en_hi,2021.1.3,1322.4639122839803,
,,,,,,,,,,,,महंगा,cheap,right,6,,,,,,,,,,,,,1,28,108,13,,,,,,,,,,,,,,,,,None,796.7087996300106,None,,,,,,,,,,,,,,,,,,,,,,,,,,,,,,,,796.071011314998,None,796.071011314998,None,right,1,0.6362385529937455,796.071011314998,None,,,,,,,,,,,,,,,,,1,00,m,2021_Apr_09_1709,ldt_en_hi,2021.1.3,1322.4639122839803,
,,,,,,,,,,,,मदान,gway,left,8,,,,,,,,,,,,,1,29,109,57,,,,,,,,,,,,,,,,,None,799.0442319860013,None,,,,,,,,,,,,,,,,,,,,,,,,,,,,,,,,797.2120844650053,None,797.2120844650053,None,left,1,1.830602155008819,797.2120844650053,None,,,,,,,,,,,,,,,,,1,00,m,2021_Apr_09_1709,ldt_en_hi,2021.1.3,1322.4639122839803,
,,,,,,,,,,,,सावधान,caklqblower,left,10,,,,,,,,,,,,,1,30,110,44,,,,,,,,,,,,,,,,,None,800.7553655680094,None,,,,,,,,,,,,,,,,,,,,,,,,,,,,,,,,799.5479468249978,None,799.5479468249978,None,left,1,1.2058777999918675,799.5479468249978,None,,,,,,,,,,,,,,,,,1,00,m,2021_Apr_09_1709,ldt_en_hi,2021.1.3,1322.4639122839803,
,,,,,,,,,,,,वन,chaos,right,7,,,,,,,,,,,,,1,31,111,33,,,,,,,,,,,,,,,,,None,802.3028185380099,None,,,,,,,,,,,,,,,,,,,,,,,,,,,,,,,,801.2582468540058,None,801.2582468540058,None,right,1,1.0429399639979238,801.2582468540058,None,,,,,,,,,,,,,,,,,1,00,m,2021_Apr_09_1709,ldt_en_hi,2021.1.3,1322.4639122839803,
,,,,,,,,,,,,तीर,bow,right,6,,,,,,,,,,,,,1,32,112,8,,,,,,,,,,,,,,,,,None,803.5717943740019,None,,,,,,,,,,,,,,,,,,,,,,,,,,,,,,,,802.8058771930082,None,802.8058771930082,None,right,1,0.7643294559966307,802.8058771930082,None,,,,,,,,,,,,,,,,,1,00,m,2021_Apr_09_1709,ldt_en_hi,2021.1.3,1322.4639122839803,
,,,,,,,,,,,,संट,subtraction,left,9,,,,,,,,,,,,,1,33,113,67,,,,,,,,,,,,,,,,,None,805.0504872320016,None,,,,,,,,,,,,,,,,,,,,,,,,,,,,,,,,804.0756593330007,None,804.0756593330007,None,right,0,0.9732337059976999,804.0756593330007,None,,,,,,,,,,,,,,,,,1,00,m,2021_Apr_09_1709,ldt_en_hi,2021.1.3,1322.4639122839803,
,,,,,,,,,,,,अभिनय,calm,right,7,,,,,,,,,,,,,1,34,114,35,,,,,,,,,,,,,,,,,None,807.404272469008,None,,,,,,,,,,,,,,,,,,,,,,,,,,,,,,,,805.5541471800097,None,805.5541471800097,None,right,1,1.8485811279970221,805.5541471800097,None,,,,,,,,,,,,,,,,,1,00,m,2021_Apr_09_1709,ldt_en_hi,2021.1.3,1322.4639122839803,
,,,,,,,,,,,,नेता,area,right,7,,,,,,,,,,,,,1,35,115,32,,,,,,,,,,,,,,,,,None,808.8117365360085,None,,,,,,,,,,,,,,,,,,,,,,,,,,,,,,,,807.9075106880045,None,807.9075106880045,None,right,1,0.9026936890004436,807.9075106880045,None,,,,,,,,,,,,,,,,,1,00,m,2021_Apr_09_1709,ldt_en_hi,2021.1.3,1322.4639122839803,
,,,,,,,,,,,,अपरा,blackboard,left,9,,,,,,,,,,,,,1,36,116,75,,,,,,,,,,,,,,,,,None,811.9055124250008,None,,,,,,,,,,,,,,,,,,,,,,,,,,,,,,,,809.3156178540085,None,809.3156178540085,None,left,1,2.588307198995608,809.3156178540085,None,,,,,,,,,,,,,,,,,1,00,m,2021_Apr_09_1709,ldt_en_hi,2021.1.3,1322.4639122839803,
,,,,,,,,,,,,रात,day,right,6,,,,,,,,,,,,,1,37,117,19,,,,,,,,,,,,,,,,,None,813.7233786440047,None,,,,,,,,,,,,,,,,,,,,,,,,,,,,,,,,812.4089653280098,None,812.4089653280098,None,right,1,1.312867971995729,812.4089653280098,None,,,,,,,,,,,,,,,,,1,00,m,2021_Apr_09_1709,ldt_en_hi,2021.1.3,1322.4639122839803,
,,,,,,,,,,,,लड़की,baby,right,6,,,,,,,,,,,,,1,38,118,3,,,,,,,,,,,,,,,,,None,815.4027641569992,None,,,,,,,,,,,,,,,,,,,,,,,,,,,,,,,,814.2267452840024,None,814.2267452840024,None,right,1,1.174457340996014,814.2267452840024,None,,,,,,,,,,,,,,,,,1,00,m,2021_Apr_09_1709,ldt_en_hi,2021.1.3,1322.4639122839803,
,,,,,,,,,,,,वकी,averake,left,8,,,,,,,,,,,,,1,39,119,63,,,,,,,,,,,,,,,,,None,818.2218808820035,None,,,,,,,,,,,,,,,,,,,,,,,,,,,,,,,,815.9062153800041,None,815.9062153800041,None,left,1,2.31408606399782,815.9062153800041,None,,,,,,,,,,,,,,,,,1,00,m,2021_Apr_09_1709,ldt_en_hi,2021.1.3,1322.4639122839803,
,,,,,,,,,,,,काम,imhge,left,10,,,,,,,,,,,,,1,40,120,40,,,,,,,,,,,,,,,,,None,819.7929940660106,None,,,,,,,,,,,,,,,,,,,,,,,,,,,,,,,,818.7254714779992,None,818.7254714779992,None,left,1,1.0659358070115559,818.7254714779992,None,,,,,,,,,,,,,,,,,1,00,m,2021_Apr_09_1709,ldt_en_hi,2021.1.3,1322.4639122839803,
,,,,,,,,,,,,मगरम,hodker,left,8,,,,,,,,,,,,,1,41,121,54,,,,,,,,,,,,,,,,,None,821.6519308300049,None,,,,,,,,,,,,,,,,,,,,,,,,,,,,,,,,820.2965149080119,None,820.2965149080119,None,left,1,1.3538354789925506,820.2965149080119,None,,,,,,,,,,,,,,,,,1,00,m,2021_Apr_09_1709,ldt_en_hi,2021.1.3,1322.4639122839803,
,,,,,,,,,,,,अजमदा,tricycle,left,9,,,,,,,,,,,,,1,42,122,72,,,,,,,,,,,,,,,,,None,823.0998413920024,None,,,,,,,,,,,,,,,,,,,,,,,,,,,,,,,,822.1558776090096,None,822.1558776090096,None,left,1,0.9423565510078333,822.1558776090096,None,,,,,,,,,,,,,,,,,1,00,m,2021_Apr_09_1709,ldt_en_hi,2021.1.3,1322.4639122839803,
,,,,,,,,,,,,गुफा,perigrm,left,10,,,,,,,,,,,,,1,43,123,51,,,,,,,,,,,,,,,,,None,827.2523406570108,None,,,,,,,,,,,,,,,,,,,,,,,,,,,,,,,,823.6033351049991,None,823.6033351049991,None,left,1,3.6474520759948064,823.6033351049991,None,,,,,,,,,,,,,,,,,1,00,m,2021_Apr_09_1709,ldt_en_hi,2021.1.3,1322.4639122839803,
,,,,,,,,,,,,विमान,decision,right,7,,,,,,,,,,,,,1,44,124,31,,,,,,,,,,,,,,,,,None,828.9439377090021,None,,,,,,,,,,,,,,,,,,,,,,,,,,,,,,,,827.7566729130049,None,827.7566729130049,None,left,0,1.1857232280017342,827.7566729130049,None,,,,,,,,,,,,,,,,,1,00,m,2021_Apr_09_1709,ldt_en_hi,2021.1.3,1322.4639122839803,
,,,,,,,,,,,,मेंढक,doe,right,7,,,,,,,,,,,,,1,45,125,36,,,,,,,,,,,,,,,,,None,830.5659205999982,None,,,,,,,,,,,,,,,,,,,,,,,,,,,,,,,,829.4474309630023,None,829.4474309630023,None,right,1,1.1169372080039466,829.4474309630023,None,,,,,,,,,,,,,,,,,1,00,m,2021_Apr_09_1709,ldt_en_hi,2021.1.3,1322.4639122839803,
,,,,,,,,,,,,नल,ltbster,left,10,,,,,,,,,,,,,1,46,126,47,,,,,,,,,,,,,,,,,None,832.4455702140112,None,,,,,,,,,,,,,,,,,,,,,,,,,,,,,,,,831.0694118670071,None,831.0694118670071,None,left,1,1.3746166709897807,831.0694118670071,None,,,,,,,,,,,,,,,,,1,00,m,2021_Apr_09_1709,ldt_en_hi,2021.1.3,1322.4639122839803,
,,,,,,,,,,,,जोकर,eyes,right,7,,,,,,,,,,,,,1,47,127,38,,,,,,,,,,,,,,,,,None,834.5313035590079,None,,,,,,,,,,,,,,,,,,,,,,,,,,,,,,,,832.9488578800083,None,832.9488578800083,None,right,1,1.5809015940030804,832.9488578800083,None,,,,,,,,,,,,,,,,,1,00,m,2021_Apr_09_1709,ldt_en_hi,2021.1.3,1322.4639122839803,
,,,,,,,,,,,,नाजु,ceok,left,8,,,,,,,,,,,,,1,48,128,58,,,,,,,,,,,,,,,,,None,836.334535189002,None,,,,,,,,,,,,,,,,,,,,,,,,,,,,,,,,835.0350272220094,None,835.0350272220094,None,left,1,1.2979253189987503,835.0350272220094,None,,,,,,,,,,,,,,,,,1,00,m,2021_Apr_09_1709,ldt_en_hi,2021.1.3,1322.4639122839803,
,,,,,,,,,,,,सच,copy,right,7,,,,,,,,,,,,,1,49,129,25,,,,,,,,,,,,,,,,,None,837.5181289129978,None,,,,,,,,,,,,,,,,,,,,,,,,,,,,,,,,836.8376211819996,None,836.8376211819996,None,right,1,0.6786761480034329,836.8376211819996,None,,,,,,,,,,,,,,,,,1,00,m,2021_Apr_09_1709,ldt_en_hi,2021.1.3,1322.4639122839803,
,,,,,,,,,,,,मगरम,bow,left,9,,,,,,,,,,,,,1,50,130,70,,,,,,,,,,,,,,,,,None,838.873625911001,None,,,,,,,,,,,,,,,,,,,,,,,,,,,,,,,,838.0212568790012,None,838.0212568790012,None,right,0,0.8508150749985361,838.0212568790012,None,,,,,,,,,,,,,,,,,1,00,m,2021_Apr_09_1709,ldt_en_hi,2021.1.3,1322.4639122839803,
,,,,,,,,,,,,पतल,dival,left,8,,,,,,,,,,,,,1,51,131,60,,,,,,,,,,,,,,,,,None,844.3131327230076,None,,,,,,,,,,,,,,,,,,,,,,,,,,,,,,,,839.3767327610112,None,839.3767327610112,None,left,1,4.93481451900152,839.3767327610112,None,,,,,,,,,,,,,,,,,1,00,m,2021_Apr_09_1709,ldt_en_hi,2021.1.3,1322.4639122839803,
,,,,,,,,,,,,परावान,octopus,left,9,,,,,,,,,,,,,1,52,132,69,,,,,,,,,,,,,,,,,None,846.5222449050052,None,,,,,,,,,,,,,,,,,,,,,,,,,,,,,,,,844.8166928240098,None,844.8166928240098,None,right,0,1.7039854169997852,844.8166928240098,None,,,,,,,,,,,,,,,,,1,00,m,2021_Apr_09_1709,ldt_en_hi,2021.1.3,1322.4639122839803,
,,,,,,,,,,,,सावधान,capmpiwity,left,10,,,,,,,,,,,,,1,53,133,50,,,,,,,,,,,,,,,,,None,847.7938264690019,None,,,,,,,,,,,,,,,,,,,,,,,,,,,,,,,,847.0257071720116,None,847.0257071720116,None,right,0,0.7665093410032568,847.0257071720116,None,,,,,,,,,,,,,,,,,1,00,m,2021_Apr_09_1709,ldt_en_hi,2021.1.3,1322.4639122839803,
,,,,,,,,,,,,बातचीत,busg,left,10,,,,,,,,,,,,,1,54,134,43,,,,,,,,,,,,,,,,,None,849.7428611510113,None,,,,,,,,,,,,,,,,,,,,,,,,,,,,,,,,848.2970366259979,None,848.2970366259979,None,left,1,1.444275021989597,848.2970366259979,None,,,,,,,,,,,,,,,,,1,00,m,2021_Apr_09_1709,ldt_en_hi,2021.1.3,1322.4639122839803,
,,,,,,,,,,,,जगल,policeman,left,9,,,,,,,,,,,,,1,55,135,77,,,,,,,,,,,,,,,,,None,851.4252550480014,None,,,,,,,,,,,,,,,,,,,,,,,,,,,,,,,,850.2462838880019,None,850.2462838880019,None,right,0,1.1774225039989688,850.2462838880019,None,,,,,,,,,,,,,,,,,1,00,m,2021_Apr_09_1709,ldt_en_hi,2021.1.3,1322.4639122839803,
,,,,,,,,,,,,अभिनय,disbhvmeve,left,10,,,,,,,,,,,,,1,56,136,41,,,,,,,,,,,,,,,,,None,855.2576858810062,None,,,,,,,,,,,,,,,,,,,,,,,,,,,,,,,,851.9285208720103,None,851.9285208720103,None,left,1,3.3275972819974413,851.9285208720103,None,,,,,,,,,,,,,,,,,1,00,m,2021_Apr_09_1709,ldt_en_hi,2021.1.3,1322.4639122839803,
,,,,,,,,,,,,गहना,diamond,right,6,,,,,,,,,,,,,1,57,137,20,,,,,,,,,,,,,,,,,None,857.3817002770083,None,,,,,,,,,,,,,,,,,,,,,,,,,,,,,,,,855.7611928550032,None,855.7611928550032,None,right,1,1.6187107699952321,855.7611928550032,None,,,,,,,,,,,,,,,,,1,00,m,2021_Apr_09_1709,ldt_en_hi,2021.1.3,1322.4639122839803,
,,,,,,,,,,,,असमल,beaufifsl,left,8,,,,,,,,,,,,,1,58,138,66,,,,,,,,,,,,,,,,,None,859.5129437440046,None,,,,,,,,,,,,,,,,,,,,,,,,,,,,,,,,857.8848637220071,None,857.8848637220071,None,left,1,1.6265237080078805,857.8848637220071,None,,,,,,,,,,,,,,,,,1,00,m,2021_Apr_09_1709,ldt_en_hi,2021.1.3,1322.4639122839803,
,,,,,,,,,,,,कोमल,cure,right,7,,,,,,,,,,,,,1,59,139,34,,,,,,,,,,,,,,,,,None,863.7012436460063,None,,,,,,,,,,,,,,,,,,,,,,,,,,,,,,,,860.0162388320023,None,860.0162388320023,None,right,1,3.6834285619988805,860.0162388320023,None,,,,,,,,,,,,,,,,,1,00,m,2021_Apr_09_1709,ldt_en_hi,2021.1.3,1322.4639122839803,
,,,,,,,,,,,,पागल,crazy,right,6,,,,,,,,,,,,,1,60,140,16,,,,,,,,,,,,,,,,,None,865.4126390470046,None,,,,,,,,,,,,,,,,,,,,,,,,,,,,,,,,864.2044847200013,None,864.2044847200013,None,right,1,1.2066021490027197,864.2044847200013,None,,,,,,,,,,,,,,,,,1,00,m,2021_Apr_09_1709,ldt_en_hi,2021.1.3,1322.4639122839803,
,,,,,,,,,,,,केला,diary,right,7,,,,,,,,,,,,,1,61,141,37,,,,,,,,,,,,,,,,,None,866.8302967659984,None,,,,,,,,,,,,,,,,,,,,,,,,,,,,,,,,865.9165347700036,None,865.9165347700036,None,right,1,0.912175165998633,865.9165347700036,None,,,,,,,,,,,,,,,,,1,00,m,2021_Apr_09_1709,ldt_en_hi,2021.1.3,1322.4639122839803,
,,,,,,,,,,,,गाड़ी,auto,right,6,,,,,,,,,,,,,1,62,142,2,,,,,,,,,,,,,,,,,None,869.0317717370053,None,,,,,,,,,,,,,,,,,,,,,,,,,,,,,,,,867.3335035089985,None,867.3335035089985,None,right,1,1.696711201002472,867.3335035089985,None,,,,,,,,,,,,,,,,,1,00,m,2021_Apr_09_1709,ldt_en_hi,2021.1.3,1322.4639122839803,
,,,,,,,,,,,,यूोप,mustache,left,9,,,,,,,,,,,,,1,63,143,71,,,,,,,,,,,,,,,,,None,870.6233142740093,None,,,,,,,,,,,,,,,,,,,,,,,,,,,,,,,,869.5353918010078,None,869.5353918010078,None,left,1,1.0863724690134404,869.5353918010078,None,,,,,,,,,,,,,,,,,1,00,m,2021_Apr_09_1709,ldt_en_hi,2021.1.3,1322.4639122839803,
,,,,,,,,,,,,अजमदा,uttac,left,8,,,,,,,,,,,,,1,64,144,62,,,,,,,,,,,,,,,,,None,872.3201439230033,None,,,,,,,,,,,,,,,,,,,,,,,,,,,,,,,,871.1269537949993,None,871.1269537949993,None,left,1,1.1915114369912772,871.1269537949993,None,,,,,,,,,,,,,,,,,1,00,m,2021_Apr_09_1709,ldt_en_hi,2021.1.3,1322.4639122839803,
,,,,,,,,,,,,खेती,dollars,right,7,,,,,,,,,,,,,1,65,145,21,,,,,,,,,,,,,,,,,None,873.901249735005,None,,,,,,,,,,,,,,,,,,,,,,,,,,,,,,,,872.8244303219981,None,872.8244303219981,None,right,1,1.0752722330071265,872.8244303219981,None,,,,,,,,,,,,,,,,,1,00,m,2021_Apr_09_1709,ldt_en_hi,2021.1.3,1322.4639122839803,
,,,,,,,,,,,,बाइन,atnton,left,8,,,,,,,,,,,,,1,66,146,61,,,,,,,,,,,,,,,,,None,875.5158483760024,None,,,,,,,,,,,,,,,,,,,,,,,,,,,,,,,,874.4048787659995,None,874.4048787659995,None,left,1,1.109404610004276,874.4048787659995,None,,,,,,,,,,,,,,,,,1,00,m,2021_Apr_09_1709,ldt_en_hi,2021.1.3,1322.4639122839803,
