w_word1,w_word2,w_corrAns,w_category,word1,word2,corrAns,category,w_hword1,w_hword2,w_hcorrAns,w_hcategory,hword1,hword2,hcorrAns,hcategory,enwarmuptrials.thisRepN,enwarmuptrials.thisTrialN,enwarmuptrials.thisN,enwarmuptrials.thisIndex,en_trials.thisRepN,en_trials.thisTrialN,en_trials.thisN,en_trials.thisIndex,hiwarmuptrials.thisRepN,hiwarmuptrials.thisTrialN,hiwarmuptrials.thisN,hiwarmuptrials.thisIndex,hi_trials.thisRepN,hi_trials.thisTrialN,hi_trials.thisN,hi_trials.thisIndex,eninstrstim.started,eninstrstim.stopped,enkbinstr.keys,enkbinstr.corr,enkbinstr.rt,enkbinstr.started,enkbinstr.stopped,enwarmupw1.started,enwarmupw1.stopped,enwarmupw2.started,enwarmupw2.stopped,enwarmupkb.keys,enwarmupkb.corr,enwarmupkb.rt,enwarmupkb.started,enwarmupkb.stopped,restresp.keys,restresp.started,restresp.stopped,startexpprompt.started,startexpprompt.stopped,startexpkbresp.keys,startexpkbresp.rt,startexpkbresp.started,startexpkbresp.stopped,entrialw1.started,entrialw1.stopped,entrialw2.started,entrialw2.stopped,enkbresp.keys,enkbresp.corr,enkbresp.rt,enkbresp.started,enkbresp.stopped,hiinstrstim.started,hiinstrstim.stopped,hikbinstr.keys,hikbinstr.corr,hikbinstr.rt,hikbinstr.started,hikbinstr.stopped,hiwarmupw1.started,hiwarmupw1.stopped,hiwarmupw2.started,hiwarmupw2.stopped,hiwarmupkb.keys,hiwarmupkb.corr,hiwarmupkb.rt,hiwarmupkb.started,hiwarmupkb.stopped,hitrialw1.started,hitrialw1.stopped,hitrialw2.started,hitrialw2.stopped,hikbresp.keys,hikbresp.corr,hikbresp.rt,hikbresp.started,hikbresp.stopped,hiskill.text,hiskill.started,hiskill.stopped,hirespskill.keys,hirespskill.rt,hirespskill.started,hirespskill.stopped,enskill_2.text,enskill_2.started,enskill_2.stopped,enrespskill_2.keys,enrespskill_2.rt,enrespskill_2.started,enrespskill_2.stopped,thankstext.started,thankstext.stopped,participant,age,gender,date,expName,psychopyVersion,frameRate,
,,,,,,,,,,,,,,,,,,,,,,,,,,,,,,,,22.71052648499608,None,right,0,11.828323337991606,22.71052648499608,None,,,,,,,,,,,,,,,,,,,,,,,,,,,,,,,,,,,,,,,,,,,,,,,,,,,,,,,,,,,,,,,,,,,,,2,26,m,2021_Apr_09_1727,ldt_en_hi,2021.1.3,1445.3039177702797,
fite,crack,left,4,,,,,,,,,,,,,0,0,0,2,,,,,,,,,,,,,,,,,,,,34.558064602009836,None,34.558064602009836,None,left,1,6.572687377993134,34.558064602009836,None,None,41.13254993601004,None,,,,,,,,,,,,,,,,,,,,,,,,,,,,,,,,,,,,,,,,,,,,,,,,,,,,,,,,,2,26,m,2021_Apr_09_1727,ldt_en_hi,2021.1.3,1445.3039177702797,
ash,ashtray,right,1,,,,,,,,,,,,,0,1,1,1,,,,,,,,,,,,,,,,,,,,41.6353322549985,None,41.6353322549985,None,right,1,1.930210596008692,41.6353322549985,None,None,43.56680810500984,None,,,,,,,,,,,,,,,,,,,,,,,,,,,,,,,,,,,,,,,,,,,,,,,,,,,,,,,,,2,26,m,2021_Apr_09_1727,ldt_en_hi,2021.1.3,1445.3039177702797,
mick,lofy,left,3,,,,,,,,,,,,,0,2,2,4,,,,,,,,,,,,,,,,,,,,44.069229770000675,None,44.069229770000675,None,left,1,3.0893957579974085,44.069229770000675,None,None,47.15987930299889,None,,,,,,,,,,,,,,,,,,,,,,,,,,,,,,,,,,,,,,,,,,,,,,,,,,,,,,,,,2,26,m,2021_Apr_09_1727,ldt_en_hi,2021.1.3,1445.3039177702797,
whistle,england,right,2,,,,,,,,,,,,,0,3,3,0,,,,,,,,,,,,,,,,,,,,47.66265180100163,None,47.66265180100163,None,right,1,2.567395646008663,47.66265180100163,None,None,50.231342646002304,None,,,,,,,,,,,,,,,,,,,,,,,,,,,,,,,,,,,,,,,,,,,,,,,,,,,,,,,,,2,26,m,2021_Apr_09_1727,ldt_en_hi,2021.1.3,1445.3039177702797,
sun,cepy,left,5,,,,,,,,,,,,,0,4,4,3,,,,,,,,,,,,,,,,,,,,50.73425369700999,None,50.73425369700999,None,left,1,2.4443194439954823,50.73425369700999,None,None,53.17986475600628,None,,,,,,,,,,,,,,,,,,,,,,,,,,,,,,,,,,,,,,,,,,,,,,,,,,,,,,,,,2,26,m,2021_Apr_09_1727,ldt_en_hi,2021.1.3,1445.3039177702797,
,,,,,,,,,,,,,,,,,,,,,,,,,,,,,,,,,,,,,,,,,,,,,,,,,,,53.68050153199874,None,right,4.54029575799359,53.68050153199874,None,,,,,,,,,,,,,,,,,,,,,,,,,,,,,,,,,,,,,,,,,,,,,,,,,,,2,26,m,2021_Apr_09_1727,ldt_en_hi,2021.1.3,1445.3039177702797,
,,,,,,,,,,,,,,,,,,,,,,,,,,,,,,,,,,,,,,,,,,,,,,,,None,58.22157845500624,None,,,,,,,,,,,,,,,,,,,,,,,,,,,,,,,,,,,,,,,,,,,,,,,,,,,,,,,,,2,26,m,2021_Apr_09_1727,ldt_en_hi,2021.1.3,1445.3039177702797,
,,,,seem,bitch,right,2,,,,,,,,,,,,,0,0,0,34,,,,,,,,,,,,,,,,,,,,,,,,,None,62.03765757000656,None,,,,,,,58.751263047000975,None,58.751263047000975,None,right,1,3.284608150992426,58.751263047000975,None,,,,,,,,,,,,,,,,,,,,,,,,,,,,,,,,,,,,,,,,,,2,26,m,2021_Apr_09_1727,ldt_en_hi,2021.1.3,1445.3039177702797,
,,,,perform,average,right,2,,,,,,,,,,,,,0,1,1,23,,,,,,,,,,,,,,,,,,,,,,,,,None,65.73943778099783,None,,,,,,,62.550334302010015,None,62.550334302010015,None,right,1,3.187763554000412,62.550334302010015,None,,,,,,,,,,,,,,,,,,,,,,,,,,,,,,,,,,,,,,,,,,2,26,m,2021_Apr_09_1727,ldt_en_hi,2021.1.3,1445.3039177702797,
,,,,uneven,dival,left,5,,,,,,,,,,,,,0,2,2,55,,,,,,,,,,,,,,,,,,,,,,,,,None,69.15675867800019,None,,,,,,,66.24214271100936,None,66.24214271100936,None,left,1,2.913272264995612,66.24214271100936,None,,,,,,,,,,,,,,,,,,,,,,,,,,,,,,,,,,,,,,,,,,2,26,m,2021_Apr_09_1727,ldt_en_hi,2021.1.3,1445.3039177702797,
,,,,adorable,bckpwck,left,5,,,,,,,,,,,,,0,3,3,59,,,,,,,,,,,,,,,,,,,,,,,,,None,72.38565279899922,None,,,,,,,69.65990977000911,None,69.65990977000911,None,left,1,2.7241483359975973,69.65990977000911,None,,,,,,,,,,,,,,,,,,,,,,,,,,,,,,,,,,,,,,,,,,2,26,m,2021_Apr_09_1727,ldt_en_hi,2021.1.3,1445.3039177702797,
,,,,inquire,blush,right,2,,,,,,,,,,,,,0,4,4,39,,,,,,,,,,,,,,,,,,,,,,,,,None,75.5655636080046,None,,,,,,,72.89792835600383,None,72.89792835600383,None,right,1,2.666316774004372,72.89792835600383,None,,,,,,,,,,,,,,,,,,,,,,,,,,,,,,,,,,,,,,,,,,2,26,m,2021_Apr_09_1727,ldt_en_hi,2021.1.3,1445.3039177702797,
,,,,capmpiwity,nney,left,3,,,,,,,,,,,,,0,5,5,44,,,,,,,,,,,,,,,,,,,,,,,,,None,79.2614448020031,None,,,,,,,76.06850283499807,None,76.06850283499807,None,left,1,3.191601868995349,76.06850283499807,None,,,,,,,,,,,,,,,,,,,,,,,,,,,,,,,,,,,,,,,,,,2,26,m,2021_Apr_09_1727,ldt_en_hi,2021.1.3,1445.3039177702797,
,,,,antidote,averake,left,5,,,,,,,,,,,,,0,6,6,58,,,,,,,,,,,,,,,,,,,,,,,,,None,81.8570300660067,None,,,,,,,79.76413695199881,None,79.76413695199881,None,left,1,2.0915562529989984,79.76413695199881,None,,,,,,,,,,,,,,,,,,,,,,,,,,,,,,,,,,,,,,,,,,2,26,m,2021_Apr_09_1727,ldt_en_hi,2021.1.3,1445.3039177702797,
,,,,inventor,leab,left,5,,,,,,,,,,,,,0,7,7,54,,,,,,,,,,,,,,,,,,,,,,,,,None,84.7361780150095,None,,,,,,,82.36012506199768,None,82.36012506199768,None,left,1,2.374694971993449,82.36012506199768,None,,,,,,,,,,,,,,,,,,,,,,,,,,,,,,,,,,,,,,,,,,2,26,m,2021_Apr_09_1727,ldt_en_hi,2021.1.3,1445.3039177702797,
,,,,frugtry,cheat,left,4,,,,,,,,,,,,,0,8,8,70,,,,,,,,,,,,,,,,,,,,,,,,,None,92.68524780300504,None,,,,,,,85.23924280800566,None,85.23924280800566,None,left,1,7.444549522988382,85.23924280800566,None,,,,,,,,,,,,,,,,,,,,,,,,,,,,,,,,,,,,,,,,,,2,26,m,2021_Apr_09_1727,ldt_en_hi,2021.1.3,1445.3039177702797,
,,,,entertain,begin,right,2,,,,,,,,,,,,,0,9,9,31,,,,,,,,,,,,,,,,,,,,,,,,,None,94.74040081900603,None,,,,,,,93.18869611700939,None,93.18869611700939,None,right,1,1.5503209410089767,93.18869611700939,None,,,,,,,,,,,,,,,,,,,,,,,,,,,,,,,,,,,,,,,,,,2,26,m,2021_Apr_09_1727,ldt_en_hi,2021.1.3,1445.3039177702797,
,,,,exdlavstion,cloth,left,4,,,,,,,,,,,,,0,10,10,71,,,,,,,,,,,,,,,,,,,,,,,,,None,98.03283187499619,None,,,,,,,95.24344296600611,None,95.24344296600611,None,left,1,2.788033444987377,95.24344296600611,None,,,,,,,,,,,,,,,,,,,,,,,,,,,,,,,,,,,,,,,,,,2,26,m,2021_Apr_09_1727,ldt_en_hi,2021.1.3,1445.3039177702797,
,,,,contreqt,bcer,left,3,,,,,,,,,,,,,0,11,11,49,,,,,,,,,,,,,,,,,,,,,,,,,None,100.20333181400201,None,,,,,,,98.53581508999923,None,98.53581508999923,None,left,1,1.6661474920110777,98.53581508999923,None,,,,,,,,,,,,,,,,,,,,,,,,,,,,,,,,,,,,,,,,,,2,26,m,2021_Apr_09_1727,ldt_en_hi,2021.1.3,1445.3039177702797,
,,,,disown,atom,right,2,,,,,,,,,,,,,0,12,12,21,,,,,,,,,,,,,,,,,,,,,,,,,None,103.0473340430035,None,,,,,,,100.70665747900784,None,100.70665747900784,None,right,1,2.33930912600772,100.70665747900784,None,,,,,,,,,,,,,,,,,,,,,,,,,,,,,,,,,,,,,,,,,,2,26,m,2021_Apr_09_1727,ldt_en_hi,2021.1.3,1445.3039177702797,
,,,,valuabzr,additkos,left,3,,,,,,,,,,,,,0,13,13,42,,,,,,,,,,,,,,,,,,,,,,,,,None,106.5512111220014,None,,,,,,,103.55687119500362,None,103.55687119500362,None,left,1,2.9929442439897684,103.55687119500362,None,,,,,,,,,,,,,,,,,,,,,,,,,,,,,,,,,,,,,,,,,,2,26,m,2021_Apr_09_1727,ldt_en_hi,2021.1.3,1445.3039177702797,
,,,,displfow,pcycce,left,3,,,,,,,,,,,,,0,14,14,51,,,,,,,,,,,,,,,,,,,,,,,,,None,111.38218811700062,None,,,,,,,107.05418899100914,None,107.05418899100914,None,left,1,4.326613616998657,107.05418899100914,None,,,,,,,,,,,,,,,,,,,,,,,,,,,,,,,,,,,,,,,,,,2,26,m,2021_Apr_09_1727,ldt_en_hi,2021.1.3,1445.3039177702797,
,,,,policeman,cop,right,1,,,,,,,,,,,,,0,15,15,18,,,,,,,,,,,,,,,,,,,,,,,,,None,113.87770522500796,None,,,,,,,111.88558620400727,None,111.88558620400727,None,right,1,1.9907386179984314,111.88558620400727,None,,,,,,,,,,,,,,,,,,,,,,,,,,,,,,,,,,,,,,,,,,2,26,m,2021_Apr_09_1727,ldt_en_hi,2021.1.3,1445.3039177702797,
,,,,mug,beer,right,1,,,,,,,,,,,,,0,16,16,7,,,,,,,,,,,,,,,,,,,,,,,,,None,115.6203969729977,None,,,,,,,114.38067103399953,None,114.38067103399953,None,right,1,1.238344715005951,114.38067103399953,None,,,,,,,,,,,,,,,,,,,,,,,,,,,,,,,,,,,,,,,,,,2,26,m,2021_Apr_09_1727,ldt_en_hi,2021.1.3,1445.3039177702797,
,,,,valuable,devil,right,2,,,,,,,,,,,,,0,17,17,20,,,,,,,,,,,,,,,,,,,,,,,,,None,120.08873803600727,None,,,,,,,116.12377790300525,None,116.12377790300525,None,right,1,3.9635545239871135,116.12377790300525,None,,,,,,,,,,,,,,,,,,,,,,,,,,,,,,,,,,,,,,,,,,2,26,m,2021_Apr_09_1727,ldt_en_hi,2021.1.3,1445.3039177702797,
,,,,anteater,belt,right,2,,,,,,,,,,,,,0,18,18,33,,,,,,,,,,,,,,,,,,,,,,,,,None,122.57916608300002,None,,,,,,,120.59178196299763,None,120.59178196299763,None,left,0,1.9859882699965965,120.59178196299763,None,,,,,,,,,,,,,,,,,,,,,,,,,,,,,,,,,,,,,,,,,,2,26,m,2021_Apr_09_1727,ldt_en_hi,2021.1.3,1445.3039177702797,
,,,,udvirb,prew,left,3,,,,,,,,,,,,,0,19,19,47,,,,,,,,,,,,,,,,,,,,,,,,,None,125.04855906999728,None,,,,,,,123.08276144800766,None,123.08276144800766,None,left,1,1.9644231319980463,123.08276144800766,None,,,,,,,,,,,,,,,,,,,,,,,,,,,,,,,,,,,,,,,,,,2,26,m,2021_Apr_09_1727,ldt_en_hi,2021.1.3,1445.3039177702797,
,,,,poldcemps,uccipt,left,3,,,,,,,,,,,,,0,20,20,40,,,,,,,,,,,,,,,,,,,,,,,,,None,130.29581901700294,None,,,,,,,125.55180310500145,None,125.55180310500145,None,left,1,4.742617007010267,125.55180310500145,None,,,,,,,,,,,,,,,,,,,,,,,,,,,,,,,,,,,,,,,,,,2,26,m,2021_Apr_09_1727,ldt_en_hi,2021.1.3,1445.3039177702797,
,,,,awareness,base,right,2,,,,,,,,,,,,,0,21,21,28,,,,,,,,,,,,,,,,,,,,,,,,,None,133.19995713800017,None,,,,,,,130.79916212499666,None,130.79916212499666,None,right,1,2.399414062005235,130.79916212499666,None,,,,,,,,,,,,,,,,,,,,,,,,,,,,,,,,,,,,,,,,,,2,26,m,2021_Apr_09_1727,ldt_en_hi,2021.1.3,1445.3039177702797,
,,,,capability,attic,right,2,,,,,,,,,,,,,0,22,22,22,,,,,,,,,,,,,,,,,,,,,,,,,None,137.38078917800158,None,,,,,,,133.70365450500685,None,133.70365450500685,None,right,1,3.675723836000543,133.70365450500685,None,,,,,,,,,,,,,,,,,,,,,,,,,,,,,,,,,,,,,,,,,,2,26,m,2021_Apr_09_1727,ldt_en_hi,2021.1.3,1445.3039177702797,
,,,,quantyta,berid,left,3,,,,,,,,,,,,,0,23,23,52,,,,,,,,,,,,,,,,,,,,,,,,,None,139.323369300997,None,,,,,,,137.88403026100423,None,137.88403026100423,None,left,1,1.437905614002375,137.88403026100423,None,,,,,,,,,,,,,,,,,,,,,,,,,,,,,,,,,,,,,,,,,,2,26,m,2021_Apr_09_1727,ldt_en_hi,2021.1.3,1445.3039177702797,
,,,,actress,actor,right,1,,,,,,,,,,,,,0,24,24,0,,,,,,,,,,,,,,,,,,,,,,,,,None,141.39850439199654,None,,,,,,,139.82684043599875,None,139.82684043599875,None,right,1,1.5702512000134448,139.82684043599875,None,,,,,,,,,,,,,,,,,,,,,,,,,,,,,,,,,,,,,,,,,,2,26,m,2021_Apr_09_1727,ldt_en_hi,2021.1.3,1445.3039177702797,
,,,,explanation,answer,right,1,,,,,,,,,,,,,0,25,25,3,,,,,,,,,,,,,,,,,,,,,,,,,None,143.4165623680019,None,,,,,,,141.90197747900675,None,141.90197747900675,None,right,1,1.5131299019994913,141.90197747900675,None,,,,,,,,,,,,,,,,,,,,,,,,,,,,,,,,,,,,,,,,,,2,26,m,2021_Apr_09_1727,ldt_en_hi,2021.1.3,1445.3039177702797,
,,,,disbhvmeve,destroy,left,4,,,,,,,,,,,,,0,26,26,76,,,,,,,,,,,,,,,,,,,,,,,,,None,145.86313760399935,None,,,,,,,143.920188271004,None,143.920188271004,None,left,1,1.9408400660031475,143.920188271004,None,,,,,,,,,,,,,,,,,,,,,,,,,,,,,,,,,,,,,,,,,,2,26,m,2021_Apr_09_1727,ldt_en_hi,2021.1.3,1445.3039177702797,
,,,,mabapine,environment,left,4,,,,,,,,,,,,,0,27,27,77,,,,,,,,,,,,,,,,,,,,,,,,,None,149.68674364700564,None,,,,,,,146.3691660540062,None,146.3691660540062,None,left,1,3.3161380469973665,146.3691660540062,None,,,,,,,,,,,,,,,,,,,,,,,,,,,,,,,,,,,,,,,,,,2,26,m,2021_Apr_09_1727,ldt_en_hi,2021.1.3,1445.3039177702797,
,,,,buws,decide,left,4,,,,,,,,,,,,,0,28,28,73,,,,,,,,,,,,,,,,,,,,,,,,,None,152.26437021500897,None,,,,,,,150.189825139998,None,150.189825139998,None,left,1,2.073132257995894,150.189825139998,None,,,,,,,,,,,,,,,,,,,,,,,,,,,,,,,,,,,,,,,,,,2,26,m,2021_Apr_09_1727,ldt_en_hi,2021.1.3,1445.3039177702797,
,,,,awbxenems,belvem,left,3,,,,,,,,,,,,,0,29,29,50,,,,,,,,,,,,,,,,,,,,,,,,,None,154.25280210199708,None,,,,,,,152.76797230400553,None,152.76797230400553,None,left,1,1.4834435090015177,152.76797230400553,None,,,,,,,,,,,,,,,,,,,,,,,,,,,,,,,,,,,,,,,,,,2,26,m,2021_Apr_09_1727,ldt_en_hi,2021.1.3,1445.3039177702797,
,,,,bow,arrow,right,1,,,,,,,,,,,,,0,30,30,5,,,,,,,,,,,,,,,,,,,,,,,,,None,156.1435633479996,None,,,,,,,154.75575102500443,None,154.75575102500443,None,right,1,1.3863714850012911,154.75575102500443,None,,,,,,,,,,,,,,,,,,,,,,,,,,,,,,,,,,,,,,,,,,2,26,m,2021_Apr_09_1727,ldt_en_hi,2021.1.3,1445.3039177702797,
,,,,magazine,book,right,1,,,,,,,,,,,,,0,31,31,10,,,,,,,,,,,,,,,,,,,,,,,,,None,157.66712132800603,None,,,,,,,156.64694331400096,None,156.64694331400096,None,right,1,1.0187464780028677,156.64694331400096,None,,,,,,,,,,,,,,,,,,,,,,,,,,,,,,,,,,,,,,,,,,2,26,m,2021_Apr_09_1727,ldt_en_hi,2021.1.3,1445.3039177702797,
,,,,suggeyf,biurd,left,3,,,,,,,,,,,,,0,32,32,48,,,,,,,,,,,,,,,,,,,,,,,,,None,159.60496691400476,None,,,,,,,158.17044148199784,None,158.17044148199784,None,left,1,1.4328974459931487,158.17044148199784,None,,,,,,,,,,,,,,,,,,,,,,,,,,,,,,,,,,,,,,,,,,2,26,m,2021_Apr_09_1727,ldt_en_hi,2021.1.3,1445.3039177702797,
,,,,sister,brother,right,1,,,,,,,,,,,,,0,33,33,13,,,,,,,,,,,,,,,,,,,,,,,,,None,162.1202021390054,None,,,,,,,160.1083745920041,None,160.1083745920041,None,right,1,2.010359760999563,160.1083745920041,None,,,,,,,,,,,,,,,,,,,,,,,,,,,,,,,,,,,,,,,,,,2,26,m,2021_Apr_09_1727,ldt_en_hi,2021.1.3,1445.3039177702797,
,,,,cowtnet,freedom,left,4,,,,,,,,,,,,,0,34,34,69,,,,,,,,,,,,,,,,,,,,,,,,,None,163.91241122300562,None,,,,,,,162.623874256009,None,162.623874256009,None,left,1,1.2871305229928112,162.623874256009,None,,,,,,,,,,,,,,,,,,,,,,,,,,,,,,,,,,,,,,,,,,2,26,m,2021_Apr_09_1727,ldt_en_hi,2021.1.3,1445.3039177702797,
,,,,disallow,beat,right,2,,,,,,,,,,,,,0,35,35,29,,,,,,,,,,,,,,,,,,,,,,,,,None,166.8165542689967,None,,,,,,,164.4156523690035,None,164.4156523690035,None,right,1,2.399481658008881,164.4156523690035,None,,,,,,,,,,,,,,,,,,,,,,,,,,,,,,,,,,,,,,,,,,2,26,m,2021_Apr_09_1727,ldt_en_hi,2021.1.3,1445.3039177702797,
,,,,cauliflower,broccoli,right,1,,,,,,,,,,,,,0,36,36,12,,,,,,,,,,,,,,,,,,,,,,,,,None,168.8005676920002,None,,,,,,,167.3203584060102,None,167.3203584060102,None,right,1,1.478762660000939,167.3203584060102,None,,,,,,,,,,,,,,,,,,,,,,,,,,,,,,,,,,,,,,,,,,2,26,m,2021_Apr_09_1727,ldt_en_hi,2021.1.3,1445.3039177702797,
,,,,ocbohus,bitch,left,4,,,,,,,,,,,,,0,37,37,72,,,,,,,,,,,,,,,,,,,,,,,,,None,170.80246564700792,None,,,,,,,169.30369247500494,None,169.30369247500494,None,left,1,1.497356891995878,169.30369247500494,None,,,,,,,,,,,,,,,,,,,,,,,,,,,,,,,,,,,,,,,,,,2,26,m,2021_Apr_09_1727,ldt_en_hi,2021.1.3,1445.3039177702797,
,,,,snuggle,atnton,left,5,,,,,,,,,,,,,0,38,38,56,,,,,,,,,,,,,,,,,,,,,,,,,None,174.41422905400395,None,,,,,,,171.3055964110099,None,171.3055964110099,None,left,1,3.1071755129960366,171.3055964110099,None,,,,,,,,,,,,,,,,,,,,,,,,,,,,,,,,,,,,,,,,,,2,26,m,2021_Apr_09_1727,ldt_en_hi,2021.1.3,1445.3039177702797,
,,,,perigrm,unswir,left,3,,,,,,,,,,,,,0,39,39,45,,,,,,,,,,,,,,,,,,,,,,,,,None,177.8590841999976,None,,,,,,,174.91729136400681,None,174.91729136400681,None,left,1,2.9402958400023635,174.91729136400681,None,,,,,,,,,,,,,,,,,,,,,,,,,,,,,,,,,,,,,,,,,,2,26,m,2021_Apr_09_1727,ldt_en_hi,2021.1.3,1445.3039177702797,
,,,,data,beaufifsl,left,5,,,,,,,,,,,,,0,40,40,63,,,,,,,,,,,,,,,,,,,,,,,,,None,180.619685165002,None,,,,,,,178.3623079109966,None,178.3623079109966,None,left,1,2.2559656859957613,178.3623079109966,None,,,,,,,,,,,,,,,,,,,,,,,,,,,,,,,,,,,,,,,,,,2,26,m,2021_Apr_09_1727,ldt_en_hi,2021.1.3,1445.3039177702797,
,,,,disbelieve,believe,right,1,,,,,,,,,,,,,0,41,41,8,,,,,,,,,,,,,,,,,,,,,,,,,None,184.77583913700073,None,,,,,,,181.1230543230049,None,181.1230543230049,None,right,1,3.651342377997935,181.1230543230049,None,,,,,,,,,,,,,,,,,,,,,,,,,,,,,,,,,,,,,,,,,,2,26,m,2021_Apr_09_1727,ldt_en_hi,2021.1.3,1445.3039177702797,
,,,,busy,bored,right,1,,,,,,,,,,,,,0,42,42,11,,,,,,,,,,,,,,,,,,,,,,,,,None,188.50748831199598,None,,,,,,,185.27909829300188,None,185.27909829300188,None,right,1,3.2269688969972776,185.27909829300188,None,,,,,,,,,,,,,,,,,,,,,,,,,,,,,,,,,,,,,,,,,,2,26,m,2021_Apr_09_1727,ldt_en_hi,2021.1.3,1445.3039177702797,
,,,,aczreis,duty,left,4,,,,,,,,,,,,,0,43,43,67,,,,,,,,,,,,,,,,,,,,,,,,,None,190.72471564699663,None,,,,,,,189.01079370299703,None,189.01079370299703,None,left,1,1.7124351629900048,189.01079370299703,None,,,,,,,,,,,,,,,,,,,,,,,,,,,,,,,,,,,,,,,,,,2,26,m,2021_Apr_09_1727,ldt_en_hi,2021.1.3,1445.3039177702797,
,,,,dasewn,ufraca,left,3,,,,,,,,,,,,,0,44,44,43,,,,,,,,,,,,,,,,,,,,,,,,,None,194.57103328099765,None,,,,,,,191.22787142000743,None,191.22787142000743,None,left,1,3.341730471001938,191.22787142000743,None,,,,,,,,,,,,,,,,,,,,,,,,,,,,,,,,,,,,,,,,,,2,26,m,2021_Apr_09_1727,ldt_en_hi,2021.1.3,1445.3039177702797,
,,,,ucter,arks,left,3,,,,,,,,,,,,,0,45,45,46,,,,,,,,,,,,,,,,,,,,,,,,,None,197.2061482470017,None,,,,,,,195.0741103860055,None,195.0741103860055,None,left,1,2.1306136880011763,195.0741103860055,None,,,,,,,,,,,,,,,,,,,,,,,,,,,,,,,,,,,,,,,,,,2,26,m,2021_Apr_09_1727,ldt_en_hi,2021.1.3,1445.3039177702797,
,,,,saucer,uttac,left,5,,,,,,,,,,,,,0,46,46,57,,,,,,,,,,,,,,,,,,,,,,,,,None,199.39869992400054,None,,,,,,,197.7092493079981,None,197.7092493079981,None,left,1,1.6880076829984318,197.7092493079981,None,,,,,,,,,,,,,,,,,,,,,,,,,,,,,,,,,,,,,,,,,,2,26,m,2021_Apr_09_1727,ldt_en_hi,2021.1.3,1445.3039177702797,
,,,,continent,africa,right,1,,,,,,,,,,,,,0,47,47,2,,,,,,,,,,,,,,,,,,,,,,,,,None,200.96918617699703,None,,,,,,,199.90177041800052,None,199.90177041800052,None,right,1,1.0659985469974345,199.90177041800052,None,,,,,,,,,,,,,,,,,,,,,,,,,,,,,,,,,,,,,,,,,,2,26,m,2021_Apr_09_1727,ldt_en_hi,2021.1.3,1445.3039177702797,
,,,,subtraction,addition,right,1,,,,,,,,,,,,,0,48,48,1,,,,,,,,,,,,,,,,,,,,,,,,,None,203.03515951000736,None,,,,,,,201.47234932299762,None,201.47234932299762,None,right,1,1.5613478809973458,201.47234932299762,None,,,,,,,,,,,,,,,,,,,,,,,,,,,,,,,,,,,,,,,,,,2,26,m,2021_Apr_09_1727,ldt_en_hi,2021.1.3,1445.3039177702797,
,,,,octopus,arms,right,1,,,,,,,,,,,,,0,49,49,4,,,,,,,,,,,,,,,,,,,,,,,,,None,207.42859505600063,None,,,,,,,203.53903937900031,None,203.53903937900031,None,right,1,3.888071271008812,203.53903937900031,None,,,,,,,,,,,,,,,,,,,,,,,,,,,,,,,,,,,,,,,,,,2,26,m,2021_Apr_09_1727,ldt_en_hi,2021.1.3,1445.3039177702797,
,,,,rug,carpet,right,1,,,,,,,,,,,,,0,50,50,15,,,,,,,,,,,,,,,,,,,,,,,,,None,209.21701839800517,None,,,,,,,207.93158130500524,None,207.93158130500524,None,right,1,1.283983351997449,207.93158130500524,None,,,,,,,,,,,,,,,,,,,,,,,,,,,,,,,,,,,,,,,,,,2,26,m,2021_Apr_09_1727,ldt_en_hi,2021.1.3,1445.3039177702797,
,,,,ash,blue,right,2,,,,,,,,,,,,,0,51,51,38,,,,,,,,,,,,,,,,,,,,,,,,,None,210.54613622900797,None,,,,,,,209.72060142899863,None,209.72060142899863,None,right,1,0.8241064430039842,209.72060142899863,None,,,,,,,,,,,,,,,,,,,,,,,,,,,,,,,,,,,,,,,,,,2,26,m,2021_Apr_09_1727,ldt_en_hi,2021.1.3,1445.3039177702797,
,,,,actor,axe,right,2,,,,,,,,,,,,,0,52,52,24,,,,,,,,,,,,,,,,,,,,,,,,,None,211.96180534800806,None,,,,,,,211.04950341999938,None,211.04950341999938,None,right,1,0.9108444650046295,211.04950341999938,None,,,,,,,,,,,,,,,,,,,,,,,,,,,,,,,,,,,,,,,,,,2,26,m,2021_Apr_09_1727,ldt_en_hi,2021.1.3,1445.3039177702797,
,,,,tricycle,bicycle,right,1,,,,,,,,,,,,,0,53,53,9,,,,,,,,,,,,,,,,,,,,,,,,,None,213.35229044900916,None,,,,,,,212.46539730700897,None,212.46539730700897,None,right,1,0.8852135159977479,212.46539730700897,None,,,,,,,,,,,,,,,,,,,,,,,,,,,,,,,,,,,,,,,,,,2,26,m,2021_Apr_09_1727,ldt_en_hi,2021.1.3,1445.3039177702797,
,,,,cricket,blow,right,2,,,,,,,,,,,,,0,54,54,37,,,,,,,,,,,,,,,,,,,,,,,,,None,214.99710042000515,None,,,,,,,213.85591136700532,None,213.85591136700532,None,right,1,1.1397560159966815,213.85591136700532,None,,,,,,,,,,,,,,,,,,,,,,,,,,,,,,,,,,,,,,,,,,2,26,m,2021_Apr_09_1727,ldt_en_hi,2021.1.3,1445.3039177702797,
,,,,mgstachi,forest,left,4,,,,,,,,,,,,,0,55,55,74,,,,,,,,,,,,,,,,,,,,,,,,,None,216.68587529999786,None,,,,,,,215.5007607800071,None,215.5007607800071,None,left,1,1.1837112439970952,215.5007607800071,None,,,,,,,,,,,,,,,,,,,,,,,,,,,,,,,,,,,,,,,,,,2,26,m,2021_Apr_09_1727,ldt_en_hi,2021.1.3,1445.3039177702797,
,,,,invent,ceok,left,5,,,,,,,,,,,,,0,56,56,53,,,,,,,,,,,,,,,,,,,,,,,,,None,218.22069135200582,None,,,,,,,217.18903050200606,None,217.18903050200606,None,left,1,1.0302099240070675,217.18903050200606,None,,,,,,,,,,,,,,,,,,,,,,,,,,,,,,,,,,,,,,,,,,2,26,m,2021_Apr_09_1727,ldt_en_hi,2021.1.3,1445.3039177702797,
,,,,ballet,fgor,left,5,,,,,,,,,,,,,0,57,57,60,,,,,,,,,,,,,,,,,,,,,,,,,None,219.75824922700122,None,,,,,,,218.7242972439999,None,218.7242972439999,None,left,1,1.032499075998203,218.7242972439999,None,,,,,,,,,,,,,,,,,,,,,,,,,,,,,,,,,,,,,,,,,,2,26,m,2021_Apr_09_1727,ldt_en_hi,2021.1.3,1445.3039177702797,
,,,,harmful,cownr,left,5,,,,,,,,,,,,,0,58,58,61,,,,,,,,,,,,,,,,,,,,,,,,,None,222.57528229900345,None,,,,,,,220.26186872500693,None,220.26186872500693,None,left,1,2.3119535759906285,220.26186872500693,None,,,,,,,,,,,,,,,,,,,,,,,,,,,,,,,,,,,,,,,,,,2,26,m,2021_Apr_09_1727,ldt_en_hi,2021.1.3,1445.3039177702797,
,,,,lobster,crab,right,1,,,,,,,,,,,,,0,59,59,19,,,,,,,,,,,,,,,,,,,,,,,,,None,224.2997064980009,None,,,,,,,223.07866696499696,None,223.07866696499696,None,right,1,1.2195809389959322,223.07866696499696,None,,,,,,,,,,,,,,,,,,,,,,,,,,,,,,,,,,,,,,,,,,2,26,m,2021_Apr_09_1727,ldt_en_hi,2021.1.3,1445.3039177702797,
,,,,adverb,backpack,right,2,,,,,,,,,,,,,0,60,60,25,,,,,,,,,,,,,,,,,,,,,,,,,None,226.2118700389983,None,,,,,,,224.80318965000333,None,224.80318965000333,None,right,1,1.4068213529972127,224.80318965000333,None,,,,,,,,,,,,,,,,,,,,,,,,,,,,,,,,,,,,,,,,,,2,26,m,2021_Apr_09_1727,ldt_en_hi,2021.1.3,1445.3039177702797,
,,,,disagreement,blanket,right,2,,,,,,,,,,,,,0,61,61,36,,,,,,,,,,,,,,,,,,,,,,,,,None,228.09221028600587,None,,,,,,,226.71729489300924,None,226.71729489300924,None,right,1,1.373483101997408,226.71729489300924,None,,,,,,,,,,,,,,,,,,,,,,,,,,,,,,,,,,,,,,,,,,2,26,m,2021_Apr_09_1727,ldt_en_hi,2021.1.3,1445.3039177702797,
,,,,corpse,bigan,left,5,,,,,,,,,,,,,0,62,62,64,,,,,,,,,,,,,,,,,,,,,,,,,None,230.13262044001021,None,,,,,,,228.59598543000175,None,228.59598543000175,None,left,1,1.5351911059988197,228.59598543000175,None,,,,,,,,,,,,,,,,,,,,,,,,,,,,,,,,,,,,,,,,,,2,26,m,2021_Apr_09_1727,ldt_en_hi,2021.1.3,1445.3039177702797,
,,,,suggest,ballet,right,2,,,,,,,,,,,,,0,63,63,26,,,,,,,,,,,,,,,,,,,,,,,,,None,237.8154834080051,None,,,,,,,230.63629388200934,None,230.63629388200934,None,left,0,7.177676456994959,230.63629388200934,None,,,,,,,,,,,,,,,,,,,,,,,,,,,,,,,,,,,,,,,,,,2,26,m,2021_Apr_09_1727,ldt_en_hi,2021.1.3,1445.3039177702797,
,,,,adventure,bnat,left,5,,,,,,,,,,,,,0,64,64,62,,,,,,,,,,,,,,,,,,,,,,,,,None,239.6107769770024,None,,,,,,,238.31903250599862,None,238.31903250599862,None,left,1,1.290300610999111,238.31903250599862,None,,,,,,,,,,,,,,,,,,,,,,,,,,,,,,,,,,,,,,,,,,2,26,m,2021_Apr_09_1727,ldt_en_hi,2021.1.3,1445.3039177702797,
,,,,contract,bar,right,2,,,,,,,,,,,,,0,65,65,27,,,,,,,,,,,,,,,,,,,,,,,,,None,241.36881166900275,None,,,,,,,240.114389690003,None,240.114389690003,None,right,1,1.2529579199908767,240.114389690003,None,,,,,,,,,,,,,,,,,,,,,,,,,,,,,,,,,,,,,,,,,,2,26,m,2021_Apr_09_1727,ldt_en_hi,2021.1.3,1445.3039177702797,
,,,,region,blame,right,2,,,,,,,,,,,,,0,66,66,35,,,,,,,,,,,,,,,,,,,,,,,,,None,243.08513256099832,None,,,,,,,241.87219146901043,None,241.87219146901043,None,right,1,1.211376328006736,241.87219146901043,None,,,,,,,,,,,,,,,,,,,,,,,,,,,,,,,,,,,,,,,,,,2,26,m,2021_Apr_09_1727,ldt_en_hi,2021.1.3,1445.3039177702797,
,,,,kitchen,cook,right,1,,,,,,,,,,,,,0,67,67,17,,,,,,,,,,,,,,,,,,,,,,,,,None,244.69280436300323,None,,,,,,,243.58874533799826,None,243.58874533799826,None,right,1,1.1026239200000418,243.58874533799826,None,,,,,,,,,,,,,,,,,,,,,,,,,,,,,,,,,,,,,,,,,,2,26,m,2021_Apr_09_1727,ldt_en_hi,2021.1.3,1445.3039177702797,
,,,,blackboard,chalk,right,1,,,,,,,,,,,,,0,68,68,16,,,,,,,,,,,,,,,,,,,,,,,,,None,246.23429741500877,None,,,,,,,245.196277466006,None,245.196277466006,None,right,1,1.0365899159951368,245.196277466006,None,,,,,,,,,,,,,,,,,,,,,,,,,,,,,,,,,,,,,,,,,,2,26,m,2021_Apr_09_1727,ldt_en_hi,2021.1.3,1445.3039177702797,
,,,,mustache,beard,right,1,,,,,,,,,,,,,0,69,69,6,,,,,,,,,,,,,,,,,,,,,,,,,None,248.37563645100454,None,,,,,,,246.73796244400728,None,246.73796244400728,None,right,1,1.635967697002343,246.73796244400728,None,,,,,,,,,,,,,,,,,,,,,,,,,,,,,,,,,,,,,,,,,,2,26,m,2021_Apr_09_1727,ldt_en_hi,2021.1.3,1445.3039177702797,
,,,,caklqblower,fashion,left,4,,,,,,,,,,,,,0,70,70,79,,,,,,,,,,,,,,,,,,,,,,,,,None,250.2350141939969,None,,,,,,,248.87904842299758,None,248.87904842299758,None,left,1,1.3544865870062495,248.87904842299758,None,,,,,,,,,,,,,,,,,,,,,,,,,,,,,,,,,,,,,,,,,,2,26,m,2021_Apr_09_1727,ldt_en_hi,2021.1.3,1445.3039177702797,
,,,,mute,bygknner,left,5,,,,,,,,,,,,,0,71,71,65,,,,,,,,,,,,,,,,,,,,,,,,,None,251.75342242300394,None,,,,,,,250.73872701299842,None,250.73872701299842,None,left,1,1.013248053001007,250.73872701299842,None,,,,,,,,,,,,,,,,,,,,,,,,,,,,,,,,,,,,,,,,,,2,26,m,2021_Apr_09_1727,ldt_en_hi,2021.1.3,1445.3039177702797,
,,,,busg,data,left,4,,,,,,,,,,,,,0,72,72,78,,,,,,,,,,,,,,,,,,,,,,,,,None,253.74956728699908,None,,,,,,,252.25679965601012,None,252.25679965601012,None,left,1,1.4913159069983521,252.25679965601012,None,,,,,,,,,,,,,,,,,,,,,,,,,,,,,,,,,,,,,,,,,,2,26,m,2021_Apr_09_1727,ldt_en_hi,2021.1.3,1445.3039177702797,
,,,,riject,farm,left,4,,,,,,,,,,,,,0,73,73,66,,,,,,,,,,,,,,,,,,,,,,,,,None,256.1555312760029,None,,,,,,,254.26046780101024,None,254.26046780101024,None,left,1,1.893604349999805,254.26046780101024,None,,,,,,,,,,,,,,,,,,,,,,,,,,,,,,,,,,,,,,,,,,2,26,m,2021_Apr_09_1727,ldt_en_hi,2021.1.3,1445.3039177702797,
,,,,stpactin,fear,left,4,,,,,,,,,,,,,0,74,74,68,,,,,,,,,,,,,,,,,,,,,,,,,None,257.93502303000423,None,,,,,,,256.6592220340099,None,256.6592220340099,None,left,1,1.2742900239973096,256.6592220340099,None,,,,,,,,,,,,,,,,,,,,,,,,,,,,,,,,,,,,,,,,,,2,26,m,2021_Apr_09_1727,ldt_en_hi,2021.1.3,1445.3039177702797,
,,,,imhge,eyes,left,4,,,,,,,,,,,,,0,75,75,75,,,,,,,,,,,,,,,,,,,,,,,,,None,259.73246447100246,None,,,,,,,258.43864294899686,None,258.43864294899686,None,left,1,1.2923689859890146,258.43864294899686,None,,,,,,,,,,,,,,,,,,,,,,,,,,,,,,,,,,,,,,,,,,2,26,m,2021_Apr_09_1727,ldt_en_hi,2021.1.3,1445.3039177702797,
,,,,quantity,beautiful,right,2,,,,,,,,,,,,,0,76,76,30,,,,,,,,,,,,,,,,,,,,,,,,,None,262.6800092420017,None,,,,,,,260.2362274710031,None,260.2362274710031,None,right,1,2.442342569003813,260.2362274710031,None,,,,,,,,,,,,,,,,,,,,,,,,,,,,,,,,,,,,,,,,,,2,26,m,2021_Apr_09_1727,ldt_en_hi,2021.1.3,1445.3039177702797,
,,,,fury,beginner,right,2,,,,,,,,,,,,,0,77,77,32,,,,,,,,,,,,,,,,,,,,,,,,,None,266.9249547090003,None,,,,,,,263.18390946500585,None,263.18390946500585,None,right,1,3.7395784120017197,263.18390946500585,None,,,,,,,,,,,,,,,,,,,,,,,,,,,,,,,,,,,,,,,,,,2,26,m,2021_Apr_09_1727,ldt_en_hi,2021.1.3,1445.3039177702797,
,,,,ltbster,lecter,left,3,,,,,,,,,,,,,0,78,78,41,,,,,,,,,,,,,,,,,,,,,,,,,None,269.2082435129996,None,,,,,,,267.4288306859962,None,267.4288306859962,None,left,1,1.7779600770008983,267.4288306859962,None,,,,,,,,,,,,,,,,,,,,,,,,,,,,,,,,,,,,,,,,,,2,26,m,2021_Apr_09_1727,ldt_en_hi,2021.1.3,1445.3039177702797,
,,,,tumor,cancer,right,1,,,,,,,,,,,,,0,79,79,14,,,,,,,,,,,,,,,,,,,,,,,,,None,271.2529976549995,None,,,,,,,269.71143350499915,None,269.71143350499915,None,right,1,1.5400844859977951,269.71143350499915,None,,,,,,,,,,,,,,,,,,,,,,,,,,,,,,,,,,,,,,,,,,2,26,m,2021_Apr_09_1727,ldt_en_hi,2021.1.3,1445.3039177702797,
,,,,cauliflower,broccoli,right,1,,,,,,,,,,,,,1,0,80,12,,,,,,,,,,,,,,,,,,,,,,,,,None,274.0500525009993,None,,,,,,,271.75707465500454,None,271.75707465500454,None,right,1,2.29150338099862,271.75707465500454,None,,,,,,,,,,,,,,,,,,,,,,,,,,,,,,,,,,,,,,,,,,2,26,m,2021_Apr_09_1727,ldt_en_hi,2021.1.3,1445.3039177702797,
,,,,fury,beginner,right,2,,,,,,,,,,,,,1,1,81,32,,,,,,,,,,,,,,,,,,,,,,,,,None,277.5265797620086,None,,,,,,,274.55363055500493,None,274.55363055500493,None,right,1,2.971501684995019,274.55363055500493,None,,,,,,,,,,,,,,,,,,,,,,,,,,,,,,,,,,,,,,,,,,2,26,m,2021_Apr_09_1727,ldt_en_hi,2021.1.3,1445.3039177702797,
,,,,snuggle,atnton,left,5,,,,,,,,,,,,,1,2,82,56,,,,,,,,,,,,,,,,,,,,,,,,,None,279.7713943550043,None,,,,,,,278.03039395599626,None,278.03039395599626,None,left,1,1.7395434520003619,278.03039395599626,None,,,,,,,,,,,,,,,,,,,,,,,,,,,,,,,,,,,,,,,,,,2,26,m,2021_Apr_09_1727,ldt_en_hi,2021.1.3,1445.3039177702797,
,,,,magazine,book,right,1,,,,,,,,,,,,,1,3,83,10,,,,,,,,,,,,,,,,,,,,,,,,,None,281.7141858370014,None,,,,,,,280.275343582005,None,280.275343582005,None,right,1,1.4373627419990953,280.275343582005,None,,,,,,,,,,,,,,,,,,,,,,,,,,,,,,,,,,,,,,,,,,2,26,m,2021_Apr_09_1727,ldt_en_hi,2021.1.3,1445.3039177702797,
,,,,suggeyf,biurd,left,3,,,,,,,,,,,,,1,4,84,48,,,,,,,,,,,,,,,,,,,,,,,,,None,284.2182033680001,None,,,,,,,282.21740442400915,None,282.21740442400915,None,left,1,1.9993341240042355,282.21740442400915,None,,,,,,,,,,,,,,,,,,,,,,,,,,,,,,,,,,,,,,,,,,2,26,m,2021_Apr_09_1727,ldt_en_hi,2021.1.3,1445.3039177702797,
,,,,inventor,leab,left,5,,,,,,,,,,,,,1,5,85,54,,,,,,,,,,,,,,,,,,,,,,,,,None,288.7997326050099,None,,,,,,,284.7216515780019,None,284.7216515780019,None,left,1,4.076273977989331,284.7216515780019,None,,,,,,,,,,,,,,,,,,,,,,,,,,,,,,,,,,,,,,,,,,2,26,m,2021_Apr_09_1727,ldt_en_hi,2021.1.3,1445.3039177702797,
,,,,tumor,cancer,right,1,,,,,,,,,,,,,1,6,86,14,,,,,,,,,,,,,,,,,,,,,,,,,None,291.02297396400536,None,,,,,,,289.30303972400725,None,289.30303972400725,None,right,1,1.7180627820052905,289.30303972400725,None,,,,,,,,,,,,,,,,,,,,,,,,,,,,,,,,,,,,,,,,,,2,26,m,2021_Apr_09_1727,ldt_en_hi,2021.1.3,1445.3039177702797,
,,,,data,beaufifsl,left,5,,,,,,,,,,,,,1,7,87,63,,,,,,,,,,,,,,,,,,,,,,,,,None,295.2791137660097,None,,,,,,,291.52824937499827,None,291.52824937499827,None,left,1,3.749264983998728,291.52824937499827,None,,,,,,,,,,,,,,,,,,,,,,,,,,,,,,,,,,,,,,,,,,2,26,m,2021_Apr_09_1727,ldt_en_hi,2021.1.3,1445.3039177702797,
,,,,contract,bar,right,2,,,,,,,,,,,,,1,8,88,27,,,,,,,,,,,,,,,,,,,,,,,,,None,297.0081049779983,None,,,,,,,295.78298365201044,None,295.78298365201044,None,right,1,1.2236092770035611,295.78298365201044,None,,,,,,,,,,,,,,,,,,,,,,,,,,,,,,,,,,,,,,,,,,2,26,m,2021_Apr_09_1727,ldt_en_hi,2021.1.3,1445.3039177702797,
,,,,mustache,beard,right,1,,,,,,,,,,,,,1,9,89,6,,,,,,,,,,,,,,,,,,,,,,,,,None,298.5194772120012,None,,,,,,,297.51149465200433,None,297.51149465200433,None,right,1,1.0064897919946816,297.51149465200433,None,,,,,,,,,,,,,,,,,,,,,,,,,,,,,,,,,,,,,,,,,,2,26,m,2021_Apr_09_1727,ldt_en_hi,2021.1.3,1445.3039177702797,
,,,,harmful,cownr,left,5,,,,,,,,,,,,,1,10,90,61,,,,,,,,,,,,,,,,,,,,,,,,,None,301.13441784599854,None,,,,,,,299.0233145329985,None,299.0233145329985,None,left,1,2.109591441010707,299.0233145329985,None,,,,,,,,,,,,,,,,,,,,,,,,,,,,,,,,,,,,,,,,,,2,26,m,2021_Apr_09_1727,ldt_en_hi,2021.1.3,1445.3039177702797,
,,,,ltbster,lecter,left,3,,,,,,,,,,,,,1,11,91,41,,,,,,,,,,,,,,,,,,,,,,,,,None,303.2935237960046,None,,,,,,,301.6381306780095,None,301.6381306780095,None,left,1,1.6539228089968674,301.6381306780095,None,,,,,,,,,,,,,,,,,,,,,,,,,,,,,,,,,,,,,,,,,,2,26,m,2021_Apr_09_1727,ldt_en_hi,2021.1.3,1445.3039177702797,
,,,,riject,farm,left,4,,,,,,,,,,,,,1,12,92,66,,,,,,,,,,,,,,,,,,,,,,,,,None,308.1670666209975,None,,,,,,,303.7968024550064,None,303.7968024550064,None,left,1,4.368806491998839,303.7968024550064,None,,,,,,,,,,,,,,,,,,,,,,,,,,,,,,,,,,,,,,,,,,2,26,m,2021_Apr_09_1727,ldt_en_hi,2021.1.3,1445.3039177702797,
,,,,mug,beer,right,1,,,,,,,,,,,,,1,13,93,7,,,,,,,,,,,,,,,,,,,,,,,,,None,310.6676093630085,None,,,,,,,308.6708297919977,None,308.6708297919977,None,right,1,1.9953352589946007,308.6708297919977,None,,,,,,,,,,,,,,,,,,,,,,,,,,,,,,,,,,,,,,,,,,2,26,m,2021_Apr_09_1727,ldt_en_hi,2021.1.3,1445.3039177702797,
,,,,quantity,beautiful,right,2,,,,,,,,,,,,,1,14,94,30,,,,,,,,,,,,,,,,,,,,,,,,,None,313.5162164080102,None,,,,,,,311.17141183599597,None,311.17141183599597,None,right,1,2.343292131990893,311.17141183599597,None,,,,,,,,,,,,,,,,,,,,,,,,,,,,,,,,,,,,,,,,,,2,26,m,2021_Apr_09_1727,ldt_en_hi,2021.1.3,1445.3039177702797,
,,,,aczreis,duty,left,4,,,,,,,,,,,,,1,15,95,67,,,,,,,,,,,,,,,,,,,,,,,,,None,315.21183089700935,None,,,,,,,314.0195239510067,None,314.0195239510067,None,left,1,1.1905701170035172,314.0195239510067,None,,,,,,,,,,,,,,,,,,,,,,,,,,,,,,,,,,,,,,,,,,2,26,m,2021_Apr_09_1727,ldt_en_hi,2021.1.3,1445.3039177702797,
,,,,disbelieve,believe,right,1,,,,,,,,,,,,,1,16,96,8,,,,,,,,,,,,,,,,,,,,,,,,,None,317.3932050130097,None,,,,,,,315.71600520200445,None,315.71600520200445,None,right,1,1.675726643006783,315.71600520200445,None,,,,,,,,,,,,,,,,,,,,,,,,,,,,,,,,,,,,,,,,,,2,26,m,2021_Apr_09_1727,ldt_en_hi,2021.1.3,1445.3039177702797,
,,,,busy,bored,right,1,,,,,,,,,,,,,1,17,97,11,,,,,,,,,,,,,,,,,,,,,,,,,None,318.94694467200316,None,,,,,,,317.89691064199724,None,317.89691064199724,None,right,1,1.0485497659974499,317.89691064199724,None,,,,,,,,,,,,,,,,,,,,,,,,,,,,,,,,,,,,,,,,,,2,26,m,2021_Apr_09_1727,ldt_en_hi,2021.1.3,1445.3039177702797,
,,,,exdlavstion,cloth,left,4,,,,,,,,,,,,,1,18,98,71,,,,,,,,,,,,,,,,,,,,,,,,,None,321.80276965300436,None,,,,,,,319.45057489399915,None,319.45057489399915,None,left,1,2.3507214690034743,319.45057489399915,None,,,,,,,,,,,,,,,,,,,,,,,,,,,,,,,,,,,,,,,,,,2,26,m,2021_Apr_09_1727,ldt_en_hi,2021.1.3,1445.3039177702797,
,,,,adventure,bnat,left,5,,,,,,,,,,,,,1,19,99,62,,,,,,,,,,,,,,,,,,,,,,,,,None,323.7312270889961,None,,,,,,,322.30667786501,None,322.30667786501,None,left,1,1.423060938002891,322.30667786501,None,,,,,,,,,,,,,,,,,,,,,,,,,,,,,,,,,,,,,,,,,,2,26,m,2021_Apr_09_1727,ldt_en_hi,2021.1.3,1445.3039177702797,
,,,,buws,decide,left,4,,,,,,,,,,,,,1,20,100,73,,,,,,,,,,,,,,,,,,,,,,,,,None,325.7751884580066,None,,,,,,,324.2351936949999,None,324.2351936949999,None,left,1,1.5385166780033614,324.2351936949999,None,,,,,,,,,,,,,,,,,,,,,,,,,,,,,,,,,,,,,,,,,,2,26,m,2021_Apr_09_1727,ldt_en_hi,2021.1.3,1445.3039177702797,
,,,,actress,actor,right,1,,,,,,,,,,,,,1,21,101,0,,,,,,,,,,,,,,,,,,,,,,,,,None,327.30997550999746,None,,,,,,,326.27845200100273,None,326.27845200100273,None,right,1,1.0300389860058203,326.27845200100273,None,,,,,,,,,,,,,,,,,,,,,,,,,,,,,,,,,,,,,,,,,,2,26,m,2021_Apr_09_1727,ldt_en_hi,2021.1.3,1445.3039177702797,
,,,,explanation,answer,right,1,,,,,,,,,,,,,1,22,102,3,,,,,,,,,,,,,,,,,,,,,,,,,None,333.4292272849998,None,,,,,,,327.8137794420036,None,327.8137794420036,None,right,1,5.6139625609939685,327.8137794420036,None,,,,,,,,,,,,,,,,,,,,,,,,,,,,,,,,,,,,,,,,,,2,26,m,2021_Apr_09_1727,ldt_en_hi,2021.1.3,1445.3039177702797,
,,,,awbxenems,belvem,left,3,,,,,,,,,,,,,1,23,103,50,,,,,,,,,,,,,,,,,,,,,,,,,None,335.6373179729999,None,,,,,,,333.93254133600567,None,333.93254133600567,None,left,1,1.7032803210022394,333.93254133600567,None,,,,,,,,,,,,,,,,,,,,,,,,,,,,,,,,,,,,,,,,,,2,26,m,2021_Apr_09_1727,ldt_en_hi,2021.1.3,1445.3039177702797,
,,,,udvirb,prew,left,3,,,,,,,,,,,,,1,24,104,47,,,,,,,,,,,,,,,,,,,,,,,,,None,338.6629522419971,None,,,,,,,336.14091251000355,None,336.14091251000355,None,left,1,2.5203162170073483,336.14091251000355,None,,,,,,,,,,,,,,,,,,,,,,,,,,,,,,,,,,,,,,,,,,2,26,m,2021_Apr_09_1727,ldt_en_hi,2021.1.3,1445.3039177702797,
,,,,kitchen,cook,right,1,,,,,,,,,,,,,1,25,105,17,,,,,,,,,,,,,,,,,,,,,,,,,None,340.0149315840099,None,,,,,,,339.16620387599687,None,339.16620387599687,None,right,1,0.8472568540018983,339.16620387599687,None,,,,,,,,,,,,,,,,,,,,,,,,,,,,,,,,,,,,,,,,,,2,26,m,2021_Apr_09_1727,ldt_en_hi,2021.1.3,1445.3039177702797,
,,,,uneven,dival,left,5,,,,,,,,,,,,,1,26,106,55,,,,,,,,,,,,,,,,,,,,,,,,,None,345.5025409259979,None,,,,,,,340.51870004199736,None,340.51870004199736,None,left,1,4.982370548998006,340.51870004199736,None,,,,,,,,,,,,,,,,,,,,,,,,,,,,,,,,,,,,,,,,,,2,26,m,2021_Apr_09_1727,ldt_en_hi,2021.1.3,1445.3039177702797,
,,,,valuabzr,additkos,left,3,,,,,,,,,,,,,1,27,107,42,,,,,,,,,,,,,,,,,,,,,,,,,None,347.71694508800283,None,,,,,,,346.005923151999,None,346.005923151999,None,left,1,1.7095246410026448,346.005923151999,None,,,,,,,,,,,,,,,,,,,,,,,,,,,,,,,,,,,,,,,,,,2,26,m,2021_Apr_09_1727,ldt_en_hi,2021.1.3,1445.3039177702797,
,,,,mgstachi,forest,left,4,,,,,,,,,,,,,1,28,108,74,,,,,,,,,,,,,,,,,,,,,,,,,None,349.7394784580101,None,,,,,,,348.2206863839965,None,348.2206863839965,None,left,1,1.517287041991949,348.2206863839965,None,,,,,,,,,,,,,,,,,,,,,,,,,,,,,,,,,,,,,,,,,,2,26,m,2021_Apr_09_1727,ldt_en_hi,2021.1.3,1445.3039177702797,
,,,,disallow,beat,right,2,,,,,,,,,,,,,1,29,109,29,,,,,,,,,,,,,,,,,,,,,,,,,None,353.716992917005,None,,,,,,,350.24318969600426,None,350.24318969600426,None,right,1,3.4723311420093523,350.24318969600426,None,,,,,,,,,,,,,,,,,,,,,,,,,,,,,,,,,,,,,,,,,,2,26,m,2021_Apr_09_1727,ldt_en_hi,2021.1.3,1445.3039177702797,
,,,,cricket,blow,right,2,,,,,,,,,,,,,1,30,110,37,,,,,,,,,,,,,,,,,,,,,,,,,None,355.1548365380004,None,,,,,,,354.2209374899976,None,354.2209374899976,None,right,1,0.9321903490053955,354.2209374899976,None,,,,,,,,,,,,,,,,,,,,,,,,,,,,,,,,,,,,,,,,,,2,26,m,2021_Apr_09_1727,ldt_en_hi,2021.1.3,1445.3039177702797,
,,,,capability,attic,right,2,,,,,,,,,,,,,1,31,111,22,,,,,,,,,,,,,,,,,,,,,,,,,None,358.7361605650076,None,,,,,,,355.65867602800427,None,355.65867602800427,None,left,0,3.0759944650053512,355.65867602800427,None,,,,,,,,,,,,,,,,,,,,,,,,,,,,,,,,,,,,,,,,,,2,26,m,2021_Apr_09_1727,ldt_en_hi,2021.1.3,1445.3039177702797,
,,,,capmpiwity,nney,left,3,,,,,,,,,,,,,1,32,112,44,,,,,,,,,,,,,,,,,,,,,,,,,None,360.4066671890032,None,,,,,,,359.23969974600186,None,359.23969974600186,None,left,1,1.1654714400065131,359.23969974600186,None,,,,,,,,,,,,,,,,,,,,,,,,,,,,,,,,,,,,,,,,,,2,26,m,2021_Apr_09_1727,ldt_en_hi,2021.1.3,1445.3039177702797,
,,,,perigrm,unswir,left,3,,,,,,,,,,,,,1,33,113,45,,,,,,,,,,,,,,,,,,,,,,,,,None,362.5676779790083,None,,,,,,,360.91007672699925,None,360.91007672699925,None,left,1,1.656089089010493,360.91007672699925,None,,,,,,,,,,,,,,,,,,,,,,,,,,,,,,,,,,,,,,,,,,2,26,m,2021_Apr_09_1727,ldt_en_hi,2021.1.3,1445.3039177702797,
,,,,caklqblower,fashion,left,4,,,,,,,,,,,,,1,34,114,79,,,,,,,,,,,,,,,,,,,,,,,,,None,364.40005375300825,None,,,,,,,363.07129614400037,None,363.07129614400037,None,left,1,1.327029110994772,363.07129614400037,None,,,,,,,,,,,,,,,,,,,,,,,,,,,,,,,,,,,,,,,,,,2,26,m,2021_Apr_09_1727,ldt_en_hi,2021.1.3,1445.3039177702797,
,,,,busg,data,left,4,,,,,,,,,,,,,1,35,115,78,,,,,,,,,,,,,,,,,,,,,,,,,None,366.29077943200537,None,,,,,,,364.90361974100233,None,364.90361974100233,None,left,1,1.3856876929930877,364.90361974100233,None,,,,,,,,,,,,,,,,,,,,,,,,,,,,,,,,,,,,,,,,,,2,26,m,2021_Apr_09_1727,ldt_en_hi,2021.1.3,1445.3039177702797,
,,,,poldcemps,uccipt,left,3,,,,,,,,,,,,,1,36,116,40,,,,,,,,,,,,,,,,,,,,,,,,,None,367.87382326999796,None,,,,,,,366.79458449900267,None,366.79458449900267,None,left,1,1.0773814749991288,366.79458449900267,None,,,,,,,,,,,,,,,,,,,,,,,,,,,,,,,,,,,,,,,,,,2,26,m,2021_Apr_09_1727,ldt_en_hi,2021.1.3,1445.3039177702797,
,,,,adorable,bckpwck,left,5,,,,,,,,,,,,,1,37,117,59,,,,,,,,,,,,,,,,,,,,,,,,,None,369.94185479800217,None,,,,,,,368.3776061480021,None,368.3776061480021,None,left,1,1.5627812900056597,368.3776061480021,None,,,,,,,,,,,,,,,,,,,,,,,,,,,,,,,,,,,,,,,,,,2,26,m,2021_Apr_09_1727,ldt_en_hi,2021.1.3,1445.3039177702797,
,,,,bow,arrow,right,1,,,,,,,,,,,,,1,38,118,5,,,,,,,,,,,,,,,,,,,,,,,,,None,371.47012334399915,None,,,,,,,370.44561975300894,None,370.44561975300894,None,right,1,1.0229971980006667,370.44561975300894,None,,,,,,,,,,,,,,,,,,,,,,,,,,,,,,,,,,,,,,,,,,2,26,m,2021_Apr_09_1727,ldt_en_hi,2021.1.3,1445.3039177702797,
,,,,disagreement,blanket,right,2,,,,,,,,,,,,,1,39,119,36,,,,,,,,,,,,,,,,,,,,,,,,,None,376.13813353200385,None,,,,,,,371.97372285599704,None,371.97372285599704,None,right,1,4.162940927999443,371.97372285599704,None,,,,,,,,,,,,,,,,,,,,,,,,,,,,,,,,,,,,,,,,,,2,26,m,2021_Apr_09_1727,ldt_en_hi,2021.1.3,1445.3039177702797,
,,,,anteater,belt,right,2,,,,,,,,,,,,,1,40,120,33,,,,,,,,,,,,,,,,,,,,,,,,,None,378.2662758130027,None,,,,,,,376.6420245409972,None,376.6420245409972,None,left,0,1.622762730010436,376.6420245409972,None,,,,,,,,,,,,,,,,,,,,,,,,,,,,,,,,,,,,,,,,,,2,26,m,2021_Apr_09_1727,ldt_en_hi,2021.1.3,1445.3039177702797,
,,,,perform,average,right,2,,,,,,,,,,,,,1,41,121,23,,,,,,,,,,,,,,,,,,,,,,,,,None,379.6115615890012,None,,,,,,,378.7702830880007,None,378.7702830880007,None,right,1,0.8395526249951217,378.7702830880007,None,,,,,,,,,,,,,,,,,,,,,,,,,,,,,,,,,,,,,,,,,,2,26,m,2021_Apr_09_1727,ldt_en_hi,2021.1.3,1445.3039177702797,
,,,,stpactin,fear,left,4,,,,,,,,,,,,,1,42,122,68,,,,,,,,,,,,,,,,,,,,,,,,,None,383.65931688000273,None,,,,,,,380.1149972760031,None,380.1149972760031,None,left,1,3.542805713004782,380.1149972760031,None,,,,,,,,,,,,,,,,,,,,,,,,,,,,,,,,,,,,,,,,,,2,26,m,2021_Apr_09_1727,ldt_en_hi,2021.1.3,1445.3039177702797,
,,,,suggest,ballet,right,2,,,,,,,,,,,,,1,43,123,26,,,,,,,,,,,,,,,,,,,,,,,,,None,387.9922435970075,None,,,,,,,384.16270713700214,None,384.16270713700214,None,left,0,3.828057903010631,384.16270713700214,None,,,,,,,,,,,,,,,,,,,,,,,,,,,,,,,,,,,,,,,,,,2,26,m,2021_Apr_09_1727,ldt_en_hi,2021.1.3,1445.3039177702797,
,,,,inquire,blush,right,2,,,,,,,,,,,,,1,44,124,39,,,,,,,,,,,,,,,,,,,,,,,,,None,390.11569824400067,None,,,,,,,388.4956761150097,None,388.4956761150097,None,right,1,1.6185063980083214,388.4956761150097,None,,,,,,,,,,,,,,,,,,,,,,,,,,,,,,,,,,,,,,,,,,2,26,m,2021_Apr_09_1727,ldt_en_hi,2021.1.3,1445.3039177702797,
,,,,policeman,cop,right,1,,,,,,,,,,,,,1,45,125,18,,,,,,,,,,,,,,,,,,,,,,,,,None,392.05342754400044,None,,,,,,,390.61899054700916,None,390.61899054700916,None,right,1,1.4329705099953571,390.61899054700916,None,,,,,,,,,,,,,,,,,,,,,,,,,,,,,,,,,,,,,,,,,,2,26,m,2021_Apr_09_1727,ldt_en_hi,2021.1.3,1445.3039177702797,
,,,,entertain,begin,right,2,,,,,,,,,,,,,1,46,126,31,,,,,,,,,,,,,,,,,,,,,,,,,None,393.6597979079961,None,,,,,,,392.55733249199693,None,392.55733249199693,None,right,1,1.1009707320044981,392.55733249199693,None,,,,,,,,,,,,,,,,,,,,,,,,,,,,,,,,,,,,,,,,,,2,26,m,2021_Apr_09_1727,ldt_en_hi,2021.1.3,1445.3039177702797,
,,,,invent,ceok,left,5,,,,,,,,,,,,,1,47,127,53,,,,,,,,,,,,,,,,,,,,,,,,,None,397.28392043300846,None,,,,,,,394.16356998099945,None,394.16356998099945,None,left,1,3.118720457001473,394.16356998099945,None,,,,,,,,,,,,,,,,,,,,,,,,,,,,,,,,,,,,,,,,,,2,26,m,2021_Apr_09_1727,ldt_en_hi,2021.1.3,1445.3039177702797,
,,,,seem,bitch,right,2,,,,,,,,,,,,,1,48,128,34,,,,,,,,,,,,,,,,,,,,,,,,,None,398.87958994800283,None,,,,,,,397.78728308100835,None,397.78728308100835,None,right,1,1.090786737986491,397.78728308100835,None,,,,,,,,,,,,,,,,,,,,,,,,,,,,,,,,,,,,,,,,,,2,26,m,2021_Apr_09_1727,ldt_en_hi,2021.1.3,1445.3039177702797,
,,,,continent,africa,right,1,,,,,,,,,,,,,1,49,129,2,,,,,,,,,,,,,,,,,,,,,,,,,None,400.1419908859971,None,,,,,,,399.3828728560038,None,399.3828728560038,None,right,1,0.7576391230104491,399.3828728560038,None,,,,,,,,,,,,,,,,,,,,,,,,,,,,,,,,,,,,,,,,,,2,26,m,2021_Apr_09_1727,ldt_en_hi,2021.1.3,1445.3039177702797,
,,,,displfow,pcycce,left,3,,,,,,,,,,,,,1,50,130,51,,,,,,,,,,,,,,,,,,,,,,,,,None,402.7375724930025,None,,,,,,,400.6459008969978,None,400.6459008969978,None,left,1,2.0900866410083836,400.6459008969978,None,,,,,,,,,,,,,,,,,,,,,,,,,,,,,,,,,,,,,,,,,,2,26,m,2021_Apr_09_1727,ldt_en_hi,2021.1.3,1445.3039177702797,
,,,,adverb,backpack,right,2,,,,,,,,,,,,,1,51,131,25,,,,,,,,,,,,,,,,,,,,,,,,,None,404.6036828740034,None,,,,,,,403.24132670700783,None,403.24132670700783,None,right,1,1.3605751139984932,403.24132670700783,None,,,,,,,,,,,,,,,,,,,,,,,,,,,,,,,,,,,,,,,,,,2,26,m,2021_Apr_09_1727,ldt_en_hi,2021.1.3,1445.3039177702797,
,,,,tricycle,bicycle,right,1,,,,,,,,,,,,,1,52,132,9,,,,,,,,,,,,,,,,,,,,,,,,,None,405.9378926490026,None,,,,,,,405.1071248750086,None,405.1071248750086,None,right,1,0.8292624409950804,405.1071248750086,None,,,,,,,,,,,,,,,,,,,,,,,,,,,,,,,,,,,,,,,,,,2,26,m,2021_Apr_09_1727,ldt_en_hi,2021.1.3,1445.3039177702797,
,,,,contreqt,bcer,left,3,,,,,,,,,,,,,1,53,133,49,,,,,,,,,,,,,,,,,,,,,,,,,None,408.88861985100084,None,,,,,,,406.4414370970044,None,406.4414370970044,None,left,1,2.445665427003405,406.4414370970044,None,,,,,,,,,,,,,,,,,,,,,,,,,,,,,,,,,,,,,,,,,,2,26,m,2021_Apr_09_1727,ldt_en_hi,2021.1.3,1445.3039177702797,
,,,,cowtnet,freedom,left,4,,,,,,,,,,,,,1,54,134,69,,,,,,,,,,,,,,,,,,,,,,,,,None,410.95318734100147,None,,,,,,,409.39204096700996,None,409.39204096700996,None,left,1,1.559638039994752,409.39204096700996,None,,,,,,,,,,,,,,,,,,,,,,,,,,,,,,,,,,,,,,,,,,2,26,m,2021_Apr_09_1727,ldt_en_hi,2021.1.3,1445.3039177702797,
,,,,mute,bygknner,left,5,,,,,,,,,,,,,1,55,135,65,,,,,,,,,,,,,,,,,,,,,,,,,None,412.81944278899755,None,,,,,,,411.4570777589979,None,411.4570777589979,None,left,1,1.360870549993706,411.4570777589979,None,,,,,,,,,,,,,,,,,,,,,,,,,,,,,,,,,,,,,,,,,,2,26,m,2021_Apr_09_1727,ldt_en_hi,2021.1.3,1445.3039177702797,
,,,,disbhvmeve,destroy,left,4,,,,,,,,,,,,,1,56,136,76,,,,,,,,,,,,,,,,,,,,,,,,,None,415.20544685900677,None,,,,,,,413.3232589859981,None,413.3232589859981,None,left,1,1.8806868039973779,413.3232589859981,None,,,,,,,,,,,,,,,,,,,,,,,,,,,,,,,,,,,,,,,,,,2,26,m,2021_Apr_09_1727,ldt_en_hi,2021.1.3,1445.3039177702797,
,,,,rug,carpet,right,1,,,,,,,,,,,,,1,57,137,15,,,,,,,,,,,,,,,,,,,,,,,,,None,417.0546410329989,None,,,,,,,415.7092499450082,None,415.7092499450082,None,right,1,1.3438770979992114,415.7092499450082,None,,,,,,,,,,,,,,,,,,,,,,,,,,,,,,,,,,,,,,,,,,2,26,m,2021_Apr_09_1727,ldt_en_hi,2021.1.3,1445.3039177702797,
,,,,disown,atom,right,2,,,,,,,,,,,,,1,58,138,21,,,,,,,,,,,,,,,,,,,,,,,,,None,420.9221135270054,None,,,,,,,417.5583187410084,None,417.5583187410084,None,right,1,3.362313837991678,417.5583187410084,None,,,,,,,,,,,,,,,,,,,,,,,,,,,,,,,,,,,,,,,,,,2,26,m,2021_Apr_09_1727,ldt_en_hi,2021.1.3,1445.3039177702797,
,,,,frugtry,cheat,left,4,,,,,,,,,,,,,1,59,139,70,,,,,,,,,,,,,,,,,,,,,,,,,None,422.7797856880061,None,,,,,,,421.4255650330015,None,421.4255650330015,None,left,1,1.3527425330103142,421.4255650330015,None,,,,,,,,,,,,,,,,,,,,,,,,,,,,,,,,,,,,,,,,,,2,26,m,2021_Apr_09_1727,ldt_en_hi,2021.1.3,1445.3039177702797,
,,,,sister,brother,right,1,,,,,,,,,,,,,1,60,140,13,,,,,,,,,,,,,,,,,,,,,,,,,None,424.62342504299886,None,,,,,,,423.283651138001,None,423.283651138001,None,right,1,1.3382791650074068,423.283651138001,None,,,,,,,,,,,,,,,,,,,,,,,,,,,,,,,,,,,,,,,,,,2,26,m,2021_Apr_09_1727,ldt_en_hi,2021.1.3,1445.3039177702797,
,,,,valuable,devil,right,2,,,,,,,,,,,,,1,61,141,20,,,,,,,,,,,,,,,,,,,,,,,,,None,426.2865533370059,None,,,,,,,425.12730023500626,None,425.12730023500626,None,right,1,1.1577427540032659,425.12730023500626,None,,,,,,,,,,,,,,,,,,,,,,,,,,,,,,,,,,,,,,,,,,2,26,m,2021_Apr_09_1727,ldt_en_hi,2021.1.3,1445.3039177702797,
,,,,blackboard,chalk,right,1,,,,,,,,,,,,,1,62,142,16,,,,,,,,,,,,,,,,,,,,,,,,,None,427.71591253099905,None,,,,,,,426.790393467003,None,426.790393467003,None,right,1,0.9240450340003008,426.790393467003,None,,,,,,,,,,,,,,,,,,,,,,,,,,,,,,,,,,,,,,,,,,2,26,m,2021_Apr_09_1727,ldt_en_hi,2021.1.3,1445.3039177702797,
,,,,antidote,averake,left,5,,,,,,,,,,,,,1,63,143,58,,,,,,,,,,,,,,,,,,,,,,,,,None,429.12721009399684,None,,,,,,,428.2196626590012,None,428.2196626590012,None,left,1,0.9060131120058941,428.2196626590012,None,,,,,,,,,,,,,,,,,,,,,,,,,,,,,,,,,,,,,,,,,,2,26,m,2021_Apr_09_1727,ldt_en_hi,2021.1.3,1445.3039177702797,
,,,,lobster,crab,right,1,,,,,,,,,,,,,1,64,144,19,,,,,,,,,,,,,,,,,,,,,,,,,None,430.55697669000074,None,,,,,,,429.63121495599626,None,429.63121495599626,None,right,1,0.9242470840108581,429.63121495599626,None,,,,,,,,,,,,,,,,,,,,,,,,,,,,,,,,,,,,,,,,,,2,26,m,2021_Apr_09_1727,ldt_en_hi,2021.1.3,1445.3039177702797,
,,,,awareness,base,right,2,,,,,,,,,,,,,1,65,145,28,,,,,,,,,,,,,,,,,,,,,,,,,None,436.97828613700403,None,,,,,,,431.0608667320048,None,431.0608667320048,None,right,1,5.915682293009013,431.0608667320048,None,,,,,,,,,,,,,,,,,,,,,,,,,,,,,,,,,,,,,,,,,,2,26,m,2021_Apr_09_1727,ldt_en_hi,2021.1.3,1445.3039177702797,
,,,,ash,blue,right,2,,,,,,,,,,,,,1,66,146,38,,,,,,,,,,,,,,,,,,,,,,,,,None,438.19706359200063,None,,,,,,,437.48194905401033,None,437.48194905401033,None,right,1,0.7136345690087182,437.48194905401033,None,,,,,,,,,,,,,,,,,,,,,,,,,,,,,,,,,,,,,,,,,,2,26,m,2021_Apr_09_1727,ldt_en_hi,2021.1.3,1445.3039177702797,
,,,,quantyta,berid,left,3,,,,,,,,,,,,,1,67,147,52,,,,,,,,,,,,,,,,,,,,,,,,,None,439.5723869680078,None,,,,,,,438.700657651003,None,438.700657651003,None,left,1,0.870250487991143,438.700657651003,None,,,,,,,,,,,,,,,,,,,,,,,,,,,,,,,,,,,,,,,,,,2,26,m,2021_Apr_09_1727,ldt_en_hi,2021.1.3,1445.3039177702797,
,,,,ucter,arks,left,3,,,,,,,,,,,,,1,68,148,46,,,,,,,,,,,,,,,,,,,,,,,,,None,441.64633423699706,None,,,,,,,440.07820360100595,None,440.07820360100595,None,left,1,1.5666413019935135,440.07820360100595,None,,,,,,,,,,,,,,,,,,,,,,,,,,,,,,,,,,,,,,,,,,2,26,m,2021_Apr_09_1727,ldt_en_hi,2021.1.3,1445.3039177702797,
,,,,ocbohus,bitch,left,4,,,,,,,,,,,,,1,69,149,72,,,,,,,,,,,,,,,,,,,,,,,,,None,443.4672445089964,None,,,,,,,442.1502650589973,None,442.1502650589973,None,left,1,1.3154612350044772,442.1502650589973,None,,,,,,,,,,,,,,,,,,,,,,,,,,,,,,,,,,,,,,,,,,2,26,m,2021_Apr_09_1727,ldt_en_hi,2021.1.3,1445.3039177702797,
,,,,mabapine,environment,left,4,,,,,,,,,,,,,1,70,150,77,,,,,,,,,,,,,,,,,,,,,,,,,None,445.67005834399606,None,,,,,,,443.9712347960012,None,443.9712347960012,None,left,1,1.6972981260041706,443.9712347960012,None,,,,,,,,,,,,,,,,,,,,,,,,,,,,,,,,,,,,,,,,,,2,26,m,2021_Apr_09_1727,ldt_en_hi,2021.1.3,1445.3039177702797,
,,,,ballet,fgor,left,5,,,,,,,,,,,,,1,71,151,60,,,,,,,,,,,,,,,,,,,,,,,,,None,448.00018251100846,None,,,,,,,446.17324497200025,None,446.17324497200025,None,left,1,1.825454649006133,446.17324497200025,None,,,,,,,,,,,,,,,,,,,,,,,,,,,,,,,,,,,,,,,,,,2,26,m,2021_Apr_09_1727,ldt_en_hi,2021.1.3,1445.3039177702797,
,,,,region,blame,right,2,,,,,,,,,,,,,1,72,152,35,,,,,,,,,,,,,,,,,,,,,,,,,None,449.6590779070102,None,,,,,,,448.503668742007,None,448.503668742007,None,right,1,1.1539298799907556,448.503668742007,None,,,,,,,,,,,,,,,,,,,,,,,,,,,,,,,,,,,,,,,,,,2,26,m,2021_Apr_09_1727,ldt_en_hi,2021.1.3,1445.3039177702797,
,,,,imhge,eyes,left,4,,,,,,,,,,,,,1,73,153,75,,,,,,,,,,,,,,,,,,,,,,,,,None,451.6234224369982,None,,,,,,,450.16304763400694,None,450.16304763400694,None,left,1,1.458863765001297,450.16304763400694,None,,,,,,,,,,,,,,,,,,,,,,,,,,,,,,,,,,,,,,,,,,2,26,m,2021_Apr_09_1727,ldt_en_hi,2021.1.3,1445.3039177702797,
,,,,actor,axe,right,2,,,,,,,,,,,,,1,74,154,24,,,,,,,,,,,,,,,,,,,,,,,,,None,453.21719100100745,None,,,,,,,452.1271573050035,None,452.1271573050035,None,right,1,1.0885274059983203,452.1271573050035,None,,,,,,,,,,,,,,,,,,,,,,,,,,,,,,,,,,,,,,,,,,2,26,m,2021_Apr_09_1727,ldt_en_hi,2021.1.3,1445.3039177702797,
,,,,corpse,bigan,left,5,,,,,,,,,,,,,1,75,155,64,,,,,,,,,,,,,,,,,,,,,,,,,None,455.5707250569976,None,,,,,,,453.72034506899945,None,453.72034506899945,None,left,1,1.8488497100042878,453.72034506899945,None,,,,,,,,,,,,,,,,,,,,,,,,,,,,,,,,,,,,,,,,,,2,26,m,2021_Apr_09_1727,ldt_en_hi,2021.1.3,1445.3039177702797,
,,,,octopus,arms,right,1,,,,,,,,,,,,,1,76,156,4,,,,,,,,,,,,,,,,,,,,,,,,,None,456.9339195960056,None,,,,,,,456.0745603660034,None,456.0745603660034,None,right,1,0.8578911410004366,456.0745603660034,None,,,,,,,,,,,,,,,,,,,,,,,,,,,,,,,,,,,,,,,,,,2,26,m,2021_Apr_09_1727,ldt_en_hi,2021.1.3,1445.3039177702797,
,,,,saucer,uttac,left,5,,,,,,,,,,,,,1,77,157,57,,,,,,,,,,,,,,,,,,,,,,,,,None,458.48780288299895,None,,,,,,,457.43785695200495,None,457.43785695200495,None,left,1,1.0484641130024102,457.43785695200495,None,,,,,,,,,,,,,,,,,,,,,,,,,,,,,,,,,,,,,,,,,,2,26,m,2021_Apr_09_1727,ldt_en_hi,2021.1.3,1445.3039177702797,
,,,,dasewn,ufraca,left,3,,,,,,,,,,,,,1,78,158,43,,,,,,,,,,,,,,,,,,,,,,,,,None,460.17498813700513,None,,,,,,,458.9914440200082,None,458.9914440200082,None,left,1,1.1820439570001327,458.9914440200082,None,,,,,,,,,,,,,,,,,,,,,,,,,,,,,,,,,,,,,,,,,,2,26,m,2021_Apr_09_1727,ldt_en_hi,2021.1.3,1445.3039177702797,
,,,,subtraction,addition,right,1,,,,,,,,,,,,,1,79,159,1,,,,,,,,,,,,,,,,,,,,,,,,,None,461.5763326550077,None,,,,,,,460.6790977680066,None,460.6790977680066,None,right,1,0.8957386909896741,460.6790977680066,None,,,,,,,,,,,,,,,,,,,,,,,,,,,,,,,,,,,,,,,,,,2,26,m,2021_Apr_09_1727,ldt_en_hi,2021.1.3,1445.3039177702797,
,,,,,,,,,,,,,,,,,,,,,,,,,,,,,,,,,,,,,,,,,,,,,,,,,,,,,,,,,,,,,,,,,,462.07763449900085,None,right,0,10.877007676012,462.07763449900085,None,,,,,,,,,,,,,,,,,,,,,,,,,,,,,,,,,,,2,26,m,2021_Apr_09_1727,ldt_en_hi,2021.1.3,1445.3039177702797,
,,,,,,,,मेंढक,deaf,right,7,,,,,,,,,,,,,0,0,0,3,,,,,,,,,,,,,,,,,,,,,None,482.8799727440055,None,,,,,,,,,,,,,,,,,,,,,,,473.0042002219998,None,473.0042002219998,None,right,1,9.873803419002797,473.0042002219998,None,,,,,,,,,,,,,,,,,,,,,,,,,,2,26,m,2021_Apr_09_1727,ldt_en_hi,2021.1.3,1445.3039177702797,
,,,,,,,,भेंस,imhge,left,10,,,,,,,,,,,,,0,1,1,4,,,,,,,,,,,,,,,,,,,,,None,487.3426691710047,None,,,,,,,,,,,,,,,,,,,,,,,483.4075200439984,None,483.4075200439984,None,left,1,3.9336226010054816,483.4075200439984,None,,,,,,,,,,,,,,,,,,,,,,,,,,2,26,m,2021_Apr_09_1727,ldt_en_hi,2021.1.3,1445.3039177702797,
,,,,,,,,नेता,follower,right,6,,,,,,,,,,,,,0,2,2,0,,,,,,,,,,,,,,,,,,,,,None,491.48681025300175,None,,,,,,,,,,,,,,,,,,,,,,,487.8711640679976,None,487.8711640679976,None,right,1,3.614180082004168,487.8711640679976,None,,,,,,,,,,,,,,,,,,,,,,,,,,2,26,m,2021_Apr_09_1727,ldt_en_hi,2021.1.3,1445.3039177702797,
,,,,,,,,टराव,explanation,left,9,,,,,,,,,,,,,0,3,3,2,,,,,,,,,,,,,,,,,,,,,None,505.3741686660069,None,,,,,,,,,,,,,,,,,,,,,,,492.01665020600194,None,492.01665020600194,None,right,0,13.356059685000218,492.01665020600194,None,,,,,,,,,,,,,,,,,,,,,,,,,,2,26,m,2021_Apr_09_1727,ldt_en_hi,2021.1.3,1445.3039177702797,
,,,,,,,,नता,babi,left,8,,,,,,,,,,,,,0,4,4,1,,,,,,,,,,,,,,,,,,,,,None,510.1145481620042,None,,,,,,,,,,,,,,,,,,,,,,,505.87740571600443,None,505.87740571600443,None,left,1,4.235665262996918,505.87740571600443,None,,,,,,,,,,,,,,,,,,,,,,,,,,2,26,m,2021_Apr_09_1727,ldt_en_hi,2021.1.3,1445.3039177702797,
,,,,,,,,,,,,,,,,,,,,,,,,,,,,,,,,,,,,,,,,,,,,,,,,,,,510.6159667699976,None,right,4.209680037005455,510.6159667699976,None,,,,,,,,,,,,,,,,,,,,,,,,,,,,,,,,,,,,,,,,,,,,,,,,,,,2,26,m,2021_Apr_09_1727,ldt_en_hi,2021.1.3,1445.3039177702797,
,,,,,,,,,,,,वकी,averake,left,8,,,,,,,,,,,,,0,0,0,63,,,,,,,,,,,,,,,,,None,521.6438309700025,None,,,,,,,,,,,,,,,,,,,,,,,,,,,,,,,,514.8646803790034,None,514.8646803790034,None,left,1,6.777109215996461,514.8646803790034,None,,,,,,,,,,,,,,,,,2,26,m,2021_Apr_09_1727,ldt_en_hi,2021.1.3,1445.3039177702797,
,,,,,,,,,,,,परावान,octopus,left,9,,,,,,,,,,,,,0,1,1,69,,,,,,,,,,,,,,,,,None,526.0299364730017,None,,,,,,,,,,,,,,,,,,,,,,,,,,,,,,,,522.1579131750041,None,522.1579131750041,None,left,1,3.870269956998527,522.1579131750041,None,,,,,,,,,,,,,,,,,2,26,m,2021_Apr_09_1727,ldt_en_hi,2021.1.3,1445.3039177702797,
,,,,,,,,,,,,जोकर,eyes,right,7,,,,,,,,,,,,,0,2,2,38,,,,,,,,,,,,,,,,,None,531.3655608850095,None,,,,,,,,,,,,,,,,,,,,,,,,,,,,,,,,526.5567912780098,None,526.5567912780098,None,right,1,4.807034015000681,526.5567912780098,None,,,,,,,,,,,,,,,,,2,26,m,2021_Apr_09_1727,ldt_en_hi,2021.1.3,1445.3039177702797,
,,,,,,,,,,,,पागल,crazy,right,6,,,,,,,,,,,,,0,3,3,16,,,,,,,,,,,,,,,,,None,533.6988054579997,None,,,,,,,,,,,,,,,,,,,,,,,,,,,,,,,,531.8910499159974,None,531.8910499159974,None,right,1,1.8062057969946181,531.8910499159974,None,,,,,,,,,,,,,,,,,2,26,m,2021_Apr_09_1727,ldt_en_hi,2021.1.3,1445.3039177702797,
,,,,,,,,,,,,अपरा,blackboard,left,9,,,,,,,,,,,,,0,4,4,75,,,,,,,,,,,,,,,,,None,538.3096070669999,None,,,,,,,,,,,,,,,,,,,,,,,,,,,,,,,,534.2168814089964,None,534.2168814089964,None,left,1,4.091200847004075,534.2168814089964,None,,,,,,,,,,,,,,,,,2,26,m,2021_Apr_09_1727,ldt_en_hi,2021.1.3,1445.3039177702797,
,,,,,,,,,,,,बहस,blaokbonvd,left,10,,,,,,,,,,,,,0,5,5,45,,,,,,,,,,,,,,,,,None,540.6228395700018,None,,,,,,,,,,,,,,,,,,,,,,,,,,,,,,,,538.8408865170059,None,538.8408865170059,None,left,1,1.7804276529932395,538.8408865170059,None,,,,,,,,,,,,,,,,,2,26,m,2021_Apr_09_1727,ldt_en_hi,2021.1.3,1445.3039177702797,
,,,,,,,,,,,,नाजु,ceok,left,8,,,,,,,,,,,,,0,6,6,58,,,,,,,,,,,,,,,,,None,542.8061585690011,None,,,,,,,,,,,,,,,,,,,,,,,,,,,,,,,,541.132024681996,None,541.132024681996,None,left,1,1.6726143910054816,541.132024681996,None,,,,,,,,,,,,,,,,,2,26,m,2021_Apr_09_1727,ldt_en_hi,2021.1.3,1445.3039177702797,
,,,,,,,,,,,,काम,imhge,left,10,,,,,,,,,,,,,0,7,7,40,,,,,,,,,,,,,,,,,None,546.4633916199964,None,,,,,,,,,,,,,,,,,,,,,,,,,,,,,,,,543.3096234499972,None,543.3096234499972,None,left,1,3.1522552039969014,543.3096234499972,None,,,,,,,,,,,,,,,,,2,26,m,2021_Apr_09_1727,ldt_en_hi,2021.1.3,1445.3039177702797,
,,,,,,,,,,,,तीर,bow,right,6,,,,,,,,,,,,,0,8,8,8,,,,,,,,,,,,,,,,,None,548.4023439900047,None,,,,,,,,,,,,,,,,,,,,,,,,,,,,,,,,546.9668771150027,None,546.9668771150027,None,right,1,1.4337214859988308,546.9668771150027,None,,,,,,,,,,,,,,,,,2,26,m,2021_Apr_09_1727,ldt_en_hi,2021.1.3,1445.3039177702797,
,,,,,,,,,,,,नक,bnat,left,8,,,,,,,,,,,,,0,9,9,65,,,,,,,,,,,,,,,,,None,551.7028048330103,None,,,,,,,,,,,,,,,,,,,,,,,,,,,,,,,,548.9058990190097,None,548.9058990190097,None,left,1,2.7953900969878305,548.9058990190097,None,,,,,,,,,,,,,,,,,2,26,m,2021_Apr_09_1727,ldt_en_hi,2021.1.3,1445.3039177702797,
,,,,,,,,,,,,संट,subtraction,left,9,,,,,,,,,,,,,0,10,10,67,,,,,,,,,,,,,,,,,None,557.0913715890056,None,,,,,,,,,,,,,,,,,,,,,,,,,,,,,,,,552.2067568519997,None,552.2067568519997,None,left,1,4.882839049998438,552.2067568519997,None,,,,,,,,,,,,,,,,,2,26,m,2021_Apr_09_1727,ldt_en_hi,2021.1.3,1445.3039177702797,
,,,,,,,,,,,,गणित,biology,right,6,,,,,,,,,,,,,0,11,11,6,,,,,,,,,,,,,,,,,None,562.2961131549964,None,,,,,,,,,,,,,,,,,,,,,,,,,,,,,,,,557.6246853490011,None,557.6246853490011,None,left,0,4.669651276999502,557.6246853490011,None,,,,,,,,,,,,,,,,,2,26,m,2021_Apr_09_1727,ldt_en_hi,2021.1.3,1445.3039177702797,
,,,,,,,,,,,,गहना,diamond,right,6,,,,,,,,,,,,,0,12,12,20,,,,,,,,,,,,,,,,,None,564.2331025250023,None,,,,,,,,,,,,,,,,,,,,,,,,,,,,,,,,562.8000527340046,None,562.8000527340046,None,right,1,1.431544302002294,562.8000527340046,None,,,,,,,,,,,,,,,,,2,26,m,2021_Apr_09_1727,ldt_en_hi,2021.1.3,1445.3039177702797,
,,,,,,,,,,,,लड़की,boy,right,6,,,,,,,,,,,,,0,13,13,10,,,,,,,,,,,,,,,,,None,566.5285045900091,None,,,,,,,,,,,,,,,,,,,,,,,,,,,,,,,,564.7487121900049,None,564.7487121900049,None,right,1,1.778235894991667,564.7487121900049,None,,,,,,,,,,,,,,,,,2,26,m,2021_Apr_09_1727,ldt_en_hi,2021.1.3,1445.3039177702797,
,,,,,,,,,,,,मैदान,blush,right,7,,,,,,,,,,,,,0,14,14,26,,,,,,,,,,,,,,,,,None,568.8934969600086,None,,,,,,,,,,,,,,,,,,,,,,,,,,,,,,,,567.0468054250086,None,567.0468054250086,None,right,1,1.8451396849995945,567.0468054250086,None,,,,,,,,,,,,,,,,,2,26,m,2021_Apr_09_1727,ldt_en_hi,2021.1.3,1445.3039177702797,
,,,,,,,,,,,,फूल,suggeyf,left,10,,,,,,,,,,,,,0,15,15,53,,,,,,,,,,,,,,,,,None,571.213423602996,None,,,,,,,,,,,,,,,,,,,,,,,,,,,,,,,,569.4145164710062,None,569.4145164710062,None,left,1,1.7973858800105518,569.4145164710062,None,,,,,,,,,,,,,,,,,2,26,m,2021_Apr_09_1727,ldt_en_hi,2021.1.3,1445.3039177702797,
,,,,,,,,,,,,साल,age,right,6,,,,,,,,,,,,,0,16,16,0,,,,,,,,,,,,,,,,,None,572.6320098169963,None,,,,,,,,,,,,,,,,,,,,,,,,,,,,,,,,571.71728252701,None,571.71728252701,None,right,1,0.9131604050053284,571.71728252701,None,,,,,,,,,,,,,,,,,2,26,m,2021_Apr_09_1727,ldt_en_hi,2021.1.3,1445.3039177702797,
,,,,,,,,,,,,खोज,expensive,right,7,,,,,,,,,,,,,0,17,17,29,,,,,,,,,,,,,,,,,None,575.4403896400036,None,,,,,,,,,,,,,,,,,,,,,,,,,,,,,,,,573.1496317600104,None,573.1496317600104,None,right,1,2.2892488910001703,573.1496317600104,None,,,,,,,,,,,,,,,,,2,26,m,2021_Apr_09_1727,ldt_en_hi,2021.1.3,1445.3039177702797,
,,,,,,,,,,,,गुफा,perigrm,left,10,,,,,,,,,,,,,0,18,18,51,,,,,,,,,,,,,,,,,None,577.7806501129962,None,,,,,,,,,,,,,,,,,,,,,,,,,,,,,,,,575.9436750690074,None,575.9436750690074,None,left,1,1.8352235130005283,575.9436750690074,None,,,,,,,,,,,,,,,,,2,26,m,2021_Apr_09_1727,ldt_en_hi,2021.1.3,1445.3039177702797,
,,,,,,,,,,,,भीड़,crowd,right,6,,,,,,,,,,,,,0,19,19,17,,,,,,,,,,,,,,,,,None,579.787586683,None,,,,,,,,,,,,,,,,,,,,,,,,,,,,,,,,578.2844150820019,None,578.2844150820019,None,right,1,1.5016389889933635,578.2844150820019,None,,,,,,,,,,,,,,,,,2,26,m,2021_Apr_09_1727,ldt_en_hi,2021.1.3,1445.3039177702797,
,,,,,,,,,,,,विमान,decision,right,7,,,,,,,,,,,,,0,20,20,31,,,,,,,,,,,,,,,,,None,583.3064442850009,None,,,,,,,,,,,,,,,,,,,,,,,,,,,,,,,,580.2910006349994,None,580.2910006349994,None,left,0,3.013876930999686,580.2910006349994,None,,,,,,,,,,,,,,,,,2,26,m,2021_Apr_09_1727,ldt_en_hi,2021.1.3,1445.3039177702797,
,,,,,,,,,,,,सुंदरता,beast,right,6,,,,,,,,,,,,,0,21,21,5,,,,,,,,,,,,,,,,,None,586.1988420330017,None,,,,,,,,,,,,,,,,,,,,,,,,,,,,,,,,583.810509324001,None,583.810509324001,None,right,1,2.386847140995087,583.810509324001,None,,,,,,,,,,,,,,,,,2,26,m,2021_Apr_09_1727,ldt_en_hi,2021.1.3,1445.3039177702797,
,,,,,,,,,,,,घर,blow,right,7,,,,,,,,,,,,,0,22,22,28,,,,,,,,,,,,,,,,,None,590.0947429280059,None,,,,,,,,,,,,,,,,,,,,,,,,,,,,,,,,586.7140851590084,None,586.7140851590084,None,right,1,3.3791333429981023,586.7140851590084,None,,,,,,,,,,,,,,,,,2,26,m,2021_Apr_09_1727,ldt_en_hi,2021.1.3,1445.3039177702797,
,,,,,,,,,,,,मगरम,hodker,left,8,,,,,,,,,,,,,0,23,23,54,,,,,,,,,,,,,,,,,None,596.8679080389993,None,,,,,,,,,,,,,,,,,,,,,,,,,,,,,,,,590.5987256840017,None,590.5987256840017,None,left,1,6.26740570399852,590.5987256840017,None,,,,,,,,,,,,,,,,,2,26,m,2021_Apr_09_1727,ldt_en_hi,2021.1.3,1445.3039177702797,
,,,,,,,,,,,,कंबल,poldcemps,left,10,,,,,,,,,,,,,0,24,24,46,,,,,,,,,,,,,,,,,None,601.0950604190002,None,,,,,,,,,,,,,,,,,,,,,,,,,,,,,,,,597.3714060820057,None,597.3714060820057,None,left,1,3.7221450219949475,597.3714060820057,None,,,,,,,,,,,,,,,,,2,26,m,2021_Apr_09_1727,ldt_en_hi,2021.1.3,1445.3039177702797,
,,,,,,,,,,,,अजमदा,uttac,left,8,,,,,,,,,,,,,0,25,25,62,,,,,,,,,,,,,,,,,None,605.8530768500059,None,,,,,,,,,,,,,,,,,,,,,,,,,,,,,,,,601.5985453190078,None,601.5985453190078,None,left,1,4.25302248900698,601.5985453190078,None,,,,,,,,,,,,,,,,,2,26,m,2021_Apr_09_1727,ldt_en_hi,2021.1.3,1445.3039177702797,
,,,,,,,,,,,,गायक,dancer,right,6,,,,,,,,,,,,,0,26,26,18,,,,,,,,,,,,,,,,,None,608.5840645480057,None,,,,,,,,,,,,,,,,,,,,,,,,,,,,,,,,606.3676894829987,None,606.3676894829987,None,right,1,2.214853233002941,606.3676894829987,None,,,,,,,,,,,,,,,,,2,26,m,2021_Apr_09_1727,ldt_en_hi,2021.1.3,1445.3039177702797,
,,,,,,,,,,,,सलाह,mabapine,left,10,,,,,,,,,,,,,0,27,27,42,,,,,,,,,,,,,,,,,None,611.9208426300029,None,,,,,,,,,,,,,,,,,,,,,,,,,,,,,,,,609.0876080989983,None,609.0876080989983,None,left,1,2.8317272679996677,609.0876080989983,None,,,,,,,,,,,,,,,,,2,26,m,2021_Apr_09_1727,ldt_en_hi,2021.1.3,1445.3039177702797,
,,,,,,,,,,,,आतंक,average,right,7,,,,,,,,,,,,,0,28,28,23,,,,,,,,,,,,,,,,,None,613.9370874059969,None,,,,,,,,,,,,,,,,,,,,,,,,,,,,,,,,612.4417108869966,None,612.4417108869966,None,right,1,1.4938840359973256,612.4417108869966,None,,,,,,,,,,,,,,,,,2,26,m,2021_Apr_09_1727,ldt_en_hi,2021.1.3,1445.3039177702797,
,,,,,,,,,,,,वन,chaos,right,7,,,,,,,,,,,,,0,29,29,33,,,,,,,,,,,,,,,,,None,617.4364424550004,None,,,,,,,,,,,,,,,,,,,,,,,,,,,,,,,,614.4410367480014,None,614.4410367480014,None,right,1,2.9938820130046224,614.4410367480014,None,,,,,,,,,,,,,,,,,2,26,m,2021_Apr_09_1727,ldt_en_hi,2021.1.3,1445.3039177702797,
,,,,,,,,,,,,अभिनय,calm,right,7,,,,,,,,,,,,,0,30,30,35,,,,,,,,,,,,,,,,,None,619.6194797700009,None,,,,,,,,,,,,,,,,,,,,,,,,,,,,,,,,617.9405322370003,None,617.9405322370003,None,left,0,1.677423468005145,617.9405322370003,None,,,,,,,,,,,,,,,,,2,26,m,2021_Apr_09_1727,ldt_en_hi,2021.1.3,1445.3039177702797,
,,,,,,,,,,,,खेती,dollars,right,7,,,,,,,,,,,,,0,31,31,21,,,,,,,,,,,,,,,,,None,625.3040485070087,None,,,,,,,,,,,,,,,,,,,,,,,,,,,,,,,,620.1233687430067,None,620.1233687430067,None,right,1,5.179157077000127,620.1233687430067,None,,,,,,,,,,,,,,,,,2,26,m,2021_Apr_09_1727,ldt_en_hi,2021.1.3,1445.3039177702797,
,,,,,,,,,,,,लड़की,baby,right,6,,,,,,,,,,,,,0,32,32,3,,,,,,,,,,,,,,,,,None,626.8857664609968,None,,,,,,,,,,,,,,,,,,,,,,,,,,,,,,,,625.8079342200072,None,625.8079342200072,None,left,0,1.0763179479981773,625.8079342200072,None,,,,,,,,,,,,,,,,,2,26,m,2021_Apr_09_1727,ldt_en_hi,2021.1.3,1445.3039177702797,
,,,,,,,,,,,,मछली,ucter,left,10,,,,,,,,,,,,,0,33,33,52,,,,,,,,,,,,,,,,,None,629.1399026550062,None,,,,,,,,,,,,,,,,,,,,,,,,,,,,,,,,627.4021555610088,None,627.4021555610088,None,left,1,1.7359858050040202,627.4021555610088,None,,,,,,,,,,,,,,,,,2,26,m,2021_Apr_09_1727,ldt_en_hi,2021.1.3,1445.3039177702797,
,,,,,,,,,,,,परावान,valuable,left,9,,,,,,,,,,,,,0,34,34,79,,,,,,,,,,,,,,,,,None,634.2136867149966,None,,,,,,,,,,,,,,,,,,,,,,,,,,,,,,,,629.643595098998,None,629.643595098998,None,left,1,4.56851133199234,629.643595098998,None,,,,,,,,,,,,,,,,,2,26,m,2021_Apr_09_1727,ldt_en_hi,2021.1.3,1445.3039177702797,
,,,,,,,,,,,,अभिनय,disbhvmeve,left,10,,,,,,,,,,,,,0,35,35,41,,,,,,,,,,,,,,,,,None,636.8183513580007,None,,,,,,,,,,,,,,,,,,,,,,,,,,,,,,,,634.7179547420092,None,634.7179547420092,None,left,1,2.0989029339980334,634.7179547420092,None,,,,,,,,,,,,,,,,,2,26,m,2021_Apr_09_1727,ldt_en_hi,2021.1.3,1445.3039177702797,
,,,,,,,,,,,,टराव,lobster,left,9,,,,,,,,,,,,,0,36,36,78,,,,,,,,,,,,,,,,,None,639.9576169080101,None,,,,,,,,,,,,,,,,,,,,,,,,,,,,,,,,637.3221387530066,None,637.3221387530066,None,left,1,2.6339924140047515,637.3221387530066,None,,,,,,,,,,,,,,,,,2,26,m,2021_Apr_09_1727,ldt_en_hi,2021.1.3,1445.3039177702797,
,,,,,,,,,,,,बातचीत,busg,left,10,,,,,,,,,,,,,0,37,37,43,,,,,,,,,,,,,,,,,None,642.5638832179975,None,,,,,,,,,,,,,,,,,,,,,,,,,,,,,,,,640.472742553,None,640.472742553,None,left,1,2.0896193600055994,640.472742553,None,,,,,,,,,,,,,,,,,2,26,m,2021_Apr_09_1727,ldt_en_hi,2021.1.3,1445.3039177702797,
,,,,,,,,,,,,केल,fgor,left,8,,,,,,,,,,,,,0,38,38,64,,,,,,,,,,,,,,,,,None,645.6955049980024,None,,,,,,,,,,,,,,,,,,,,,,,,,,,,,,,,643.0677349570033,None,643.0677349570033,None,left,1,2.6262006939941784,643.0677349570033,None,,,,,,,,,,,,,,,,,2,26,m,2021_Apr_09_1727,ldt_en_hi,2021.1.3,1445.3039177702797,
,,,,,,,,,,,,मगरम,bow,left,9,,,,,,,,,,,,,0,39,39,70,,,,,,,,,,,,,,,,,None,647.6510252389999,None,,,,,,,,,,,,,,,,,,,,,,,,,,,,,,,,646.1993247320061,None,646.1993247320061,None,left,1,1.450179813997238,646.1993247320061,None,,,,,,,,,,,,,,,,,2,26,m,2021_Apr_09_1727,ldt_en_hi,2021.1.3,1445.3039177702797,
,,,,,,,,,,,,शेर,lion,right,6,,,,,,,,,,,,,0,40,40,1,,,,,,,,,,,,,,,,,None,649.4504644060071,None,,,,,,,,,,,,,,,,,,,,,,,,,,,,,,,,648.166442643007,None,648.166442643007,None,right,1,1.2824686259991722,648.166442643007,None,,,,,,,,,,,,,,,,,2,26,m,2021_Apr_09_1727,ldt_en_hi,2021.1.3,1445.3039177702797,
,,,,,,,,,,,,गेंद,bat,right,6,,,,,,,,,,,,,0,41,41,4,,,,,,,,,,,,,,,,,None,652.018823927996,None,,,,,,,,,,,,,,,,,,,,,,,,,,,,,,,,649.953975219003,None,649.953975219003,None,right,1,2.0633241809991887,649.953975219003,None,,,,,,,,,,,,,,,,,2,26,m,2021_Apr_09_1727,ldt_en_hi,2021.1.3,1445.3039177702797,
,,,,,,,,,,,,सच,copy,right,7,,,,,,,,,,,,,0,42,42,25,,,,,,,,,,,,,,,,,None,653.7080685289984,None,,,,,,,,,,,,,,,,,,,,,,,,,,,,,,,,652.5225864180102,None,652.5225864180102,None,right,1,1.1839868089882657,652.5225864180102,None,,,,,,,,,,,,,,,,,2,26,m,2021_Apr_09_1727,ldt_en_hi,2021.1.3,1445.3039177702797,
,,,,,,,,,,,,केला,diary,right,7,,,,,,,,,,,,,0,43,43,37,,,,,,,,,,,,,,,,,None,660.5090161959961,None,,,,,,,,,,,,,,,,,,,,,,,,,,,,,,,,654.2113997330016,None,654.2113997330016,None,right,1,6.2961025860131485,654.2113997330016,None,,,,,,,,,,,,,,,,,2,26,m,2021_Apr_09_1727,ldt_en_hi,2021.1.3,1445.3039177702797,
,,,,,,,,,,,,असमल,rug,left,9,,,,,,,,,,,,,0,44,44,74,,,,,,,,,,,,,,,,,None,662.6253447650088,None,,,,,,,,,,,,,,,,,,,,,,,,,,,,,,,,661.0125100639998,None,661.0125100639998,None,right,0,1.6112968749948777,661.0125100639998,None,,,,,,,,,,,,,,,,,2,26,m,2021_Apr_09_1727,ldt_en_hi,2021.1.3,1445.3039177702797,
,,,,,,,,,,,,मदान,gway,left,8,,,,,,,,,,,,,0,45,45,57,,,,,,,,,,,,,,,,,None,664.6158391960053,None,,,,,,,,,,,,,,,,,,,,,,,,,,,,,,,,663.1286162059987,None,663.1286162059987,None,left,1,1.4856896819983376,663.1286162059987,None,,,,,,,,,,,,,,,,,2,26,m,2021_Apr_09_1727,ldt_en_hi,2021.1.3,1445.3039177702797,
,,,,,,,,,,,,रात,day,right,6,,,,,,,,,,,,,0,46,46,19,,,,,,,,,,,,,,,,,None,667.4695595820085,None,,,,,,,,,,,,,,,,,,,,,,,,,,,,,,,,665.1191298900085,None,665.1191298900085,None,right,1,2.348678716996801,665.1191298900085,None,,,,,,,,,,,,,,,,,2,26,m,2021_Apr_09_1727,ldt_en_hi,2021.1.3,1445.3039177702797,
,,,,,,,,,,,,पतल,dival,left,8,,,,,,,,,,,,,0,47,47,60,,,,,,,,,,,,,,,,,None,669.3314364249964,None,,,,,,,,,,,,,,,,,,,,,,,,,,,,,,,,667.9734371640079,None,667.9734371640079,None,left,1,1.3564556229976006,667.9734371640079,None,,,,,,,,,,,,,,,,,2,26,m,2021_Apr_09_1727,ldt_en_hi,2021.1.3,1445.3039177702797,
,,,,,,,,,,,,जापान,china,right,6,,,,,,,,,,,,,0,48,48,14,,,,,,,,,,,,,,,,,None,671.2085981600103,None,,,,,,,,,,,,,,,,,,,,,,,,,,,,,,,,669.8348162659968,None,669.8348162659968,None,right,1,1.3722702270024456,669.8348162659968,None,,,,,,,,,,,,,,,,,2,26,m,2021_Apr_09_1727,ldt_en_hi,2021.1.3,1445.3039177702797,
,,,,,,,,,,,,अजमदा,tricycle,left,9,,,,,,,,,,,,,0,49,49,72,,,,,,,,,,,,,,,,,None,675.8992646289989,None,,,,,,,,,,,,,,,,,,,,,,,,,,,,,,,,671.7125440210075,None,671.7125440210075,None,left,1,4.1852007120032795,671.7125440210075,None,,,,,,,,,,,,,,,,,2,26,m,2021_Apr_09_1727,ldt_en_hi,2021.1.3,1445.3039177702797,
,,,,,,,,,,,,गहा,chulk,left,8,,,,,,,,,,,,,0,50,50,56,,,,,,,,,,,,,,,,,None,679.3793803470035,None,,,,,,,,,,,,,,,,,,,,,,,,,,,,,,,,676.402954434001,None,676.402954434001,None,left,1,2.974582032999024,676.402954434001,None,,,,,,,,,,,,,,,,,2,26,m,2021_Apr_09_1727,ldt_en_hi,2021.1.3,1445.3039177702797,
,,,,,,,,,,,,महंगा,cheap,right,6,,,,,,,,,,,,,0,51,51,13,,,,,,,,,,,,,,,,,None,682.1720240750001,None,,,,,,,,,,,,,,,,,,,,,,,,,,,,,,,,679.8833041129983,None,679.8833041129983,None,right,1,2.2871998120099306,679.8833041129983,None,,,,,,,,,,,,,,,,,2,26,m,2021_Apr_09_1727,ldt_en_hi,2021.1.3,1445.3039177702797,
,,,,,,,,,,,,कोमल,cure,right,7,,,,,,,,,,,,,0,52,52,34,,,,,,,,,,,,,,,,,None,683.8596406770084,None,,,,,,,,,,,,,,,,,,,,,,,,,,,,,,,,682.6758432110073,None,682.6758432110073,None,right,1,1.1822732860018732,682.6758432110073,None,,,,,,,,,,,,,,,,,2,26,m,2021_Apr_09_1727,ldt_en_hi,2021.1.3,1445.3039177702797,
,,,,,,,,,,,,असमल,beaufifsl,left,8,,,,,,,,,,,,,0,53,53,66,,,,,,,,,,,,,,,,,None,686.097946089998,None,,,,,,,,,,,,,,,,,,,,,,,,,,,,,,,,684.3634345040045,None,684.3634345040045,None,left,1,1.7327526650042273,684.3634345040045,None,,,,,,,,,,,,,,,,,2,26,m,2021_Apr_09_1727,ldt_en_hi,2021.1.3,1445.3039177702797,
,,,,,,,,,,,,मेंढक,doe,right,7,,,,,,,,,,,,,0,54,54,36,,,,,,,,,,,,,,,,,None,689.5886639230011,None,,,,,,,,,,,,,,,,,,,,,,,,,,,,,,,,686.6014739950042,None,686.6014739950042,None,left,0,2.9856720520037925,686.6014739950042,None,,,,,,,,,,,,,,,,,2,26,m,2021_Apr_09_1727,ldt_en_hi,2021.1.3,1445.3039177702797,
,,,,,,,,,,,,भगवान,temple,right,6,,,,,,,,,,,,,0,55,55,15,,,,,,,,,,,,,,,,,None,691.4851072120073,None,,,,,,,,,,,,,,,,,,,,,,,,,,,,,,,,690.0922931170062,None,690.0922931170062,None,right,1,1.3913088899862487,690.0922931170062,None,,,,,,,,,,,,,,,,,2,26,m,2021_Apr_09_1727,ldt_en_hi,2021.1.3,1445.3039177702797,
,,,,,,,,,,,,आतंकवादी,bomb,right,6,,,,,,,,,,,,,0,56,56,7,,,,,,,,,,,,,,,,,None,693.4900528700091,None,,,,,,,,,,,,,,,,,,,,,,,,,,,,,,,,691.9891122109984,None,691.9891122109984,None,right,1,1.4994199740031036,691.9891122109984,None,,,,,,,,,,,,,,,,,2,26,m,2021_Apr_09_1727,ldt_en_hi,2021.1.3,1445.3039177702797,
,,,,,,,,,,,,केल,cauliflower,left,9,,,,,,,,,,,,,0,57,57,73,,,,,,,,,,,,,,,,,None,696.5290913689969,None,,,,,,,,,,,,,,,,,,,,,,,,,,,,,,,,693.9937917619973,None,693.9937917619973,None,right,0,2.533790688001318,693.9937917619973,None,,,,,,,,,,,,,,,,,2,26,m,2021_Apr_09_1727,ldt_en_hi,2021.1.3,1445.3039177702797,
,,,,,,,,,,,,बाइन,atnton,left,8,,,,,,,,,,,,,0,58,58,61,,,,,,,,,,,,,,,,,None,698.6243113149976,None,,,,,,,,,,,,,,,,,,,,,,,,,,,,,,,,697.0441286450077,None,697.0441286450077,None,left,1,1.5786740259936778,697.0441286450077,None,,,,,,,,,,,,,,,,,2,26,m,2021_Apr_09_1727,ldt_en_hi,2021.1.3,1445.3039177702797,
,,,,,,,,,,,,लड़ाकू,boxer,right,6,,,,,,,,,,,,,0,59,59,9,,,,,,,,,,,,,,,,,None,700.6458232160076,None,,,,,,,,,,,,,,,,,,,,,,,,,,,,,,,,699.1278506320086,None,699.1278506320086,None,right,1,1.5162077519926243,699.1278506320086,None,,,,,,,,,,,,,,,,,2,26,m,2021_Apr_09_1727,ldt_en_hi,2021.1.3,1445.3039177702797,
,,,,,,,,,,,,शहनाई,decay,right,7,,,,,,,,,,,,,0,60,60,30,,,,,,,,,,,,,,,,,None,702.6699877860083,None,,,,,,,,,,,,,,,,,,,,,,,,,,,,,,,,701.1642522670008,None,701.1642522670008,None,right,1,1.5041376829904038,701.1642522670008,None,,,,,,,,,,,,,,,,,2,26,m,2021_Apr_09_1727,ldt_en_hi,2021.1.3,1445.3039177702797,
,,,,,,,,,,,,अनाज,breakfast,right,6,,,,,,,,,,,,,0,61,61,11,,,,,,,,,,,,,,,,,None,704.1916454660095,None,,,,,,,,,,,,,,,,,,,,,,,,,,,,,,,,703.1737153190043,None,703.1737153190043,None,right,1,1.0163684819999617,703.1737153190043,None,,,,,,,,,,,,,,,,,2,26,m,2021_Apr_09_1727,ldt_en_hi,2021.1.3,1445.3039177702797,
,,,,,,,,,,,,सावधान,capmpiwity,left,10,,,,,,,,,,,,,0,62,62,50,,,,,,,,,,,,,,,,,None,705.9876376320026,None,,,,,,,,,,,,,,,,,,,,,,,,,,,,,,,,704.7065248440049,None,704.7065248440049,None,left,1,1.27953731600428,704.7065248440049,None,,,,,,,,,,,,,,,,,2,26,m,2021_Apr_09_1727,ldt_en_hi,2021.1.3,1445.3039177702797,
,,,,,,,,,,,,संट,kitchen,left,9,,,,,,,,,,,,,0,63,63,76,,,,,,,,,,,,,,,,,None,710.7063819510076,None,,,,,,,,,,,,,,,,,,,,,,,,,,,,,,,,706.4910993290105,None,706.4910993290105,None,left,1,4.213764635991538,706.4910993290105,None,,,,,,,,,,,,,,,,,2,26,m,2021_Apr_09_1727,ldt_en_hi,2021.1.3,1445.3039177702797,
,,,,,,,,,,,,गाड़ी,auto,right,6,,,,,,,,,,,,,0,64,64,2,,,,,,,,,,,,,,,,,None,712.0147375289962,None,,,,,,,,,,,,,,,,,,,,,,,,,,,,,,,,711.2099396580015,None,711.2099396580015,None,right,1,0.8032819719956024,711.2099396580015,None,,,,,,,,,,,,,,,,,2,26,m,2021_Apr_09_1727,ldt_en_hi,2021.1.3,1445.3039177702797,
,,,,,,,,,,,,पैसे,cash,right,6,,,,,,,,,,,,,0,65,65,12,,,,,,,,,,,,,,,,,None,713.5002581349981,None,,,,,,,,,,,,,,,,,,,,,,,,,,,,,,,,712.5180961340084,None,712.5180961340084,None,right,1,0.9806300960044609,712.5180961340084,None,,,,,,,,,,,,,,,,,2,26,m,2021_Apr_09_1727,ldt_en_hi,2021.1.3,1445.3039177702797,
,,,,,,,,,,,,गाजर,dasewn,left,10,,,,,,,,,,,,,0,66,66,49,,,,,,,,,,,,,,,,,None,715.3496298070095,None,,,,,,,,,,,,,,,,,,,,,,,,,,,,,,,,714.0037937690067,None,714.0037937690067,None,left,1,1.3440754530020058,714.0037937690067,None,,,,,,,,,,,,,,,,,2,26,m,2021_Apr_09_1727,ldt_en_hi,2021.1.3,1445.3039177702797,
,,,,,,,,,,,,यूोप,mustache,left,9,,,,,,,,,,,,,0,67,67,71,,,,,,,,,,,,,,,,,None,719.243104936002,None,,,,,,,,,,,,,,,,,,,,,,,,,,,,,,,,715.8534309609968,None,715.8534309609968,None,left,1,3.388154622996808,715.8534309609968,None,,,,,,,,,,,,,,,,,2,26,m,2021_Apr_09_1727,ldt_en_hi,2021.1.3,1445.3039177702797,
,,,,,,,,,,,,जगल,policeman,left,9,,,,,,,,,,,,,0,68,68,77,,,,,,,,,,,,,,,,,None,721.641642454997,None,,,,,,,,,,,,,,,,,,,,,,,,,,,,,,,,719.7468771319982,None,719.7468771319982,None,right,0,1.893247453001095,719.7468771319982,None,,,,,,,,,,,,,,,,,2,26,m,2021_Apr_09_1727,ldt_en_hi,2021.1.3,1445.3039177702797,
,,,,,,,,,,,,सावधान,caklqblower,left,10,,,,,,,,,,,,,0,69,69,44,,,,,,,,,,,,,,,,,None,724.4735995910014,None,,,,,,,,,,,,,,,,,,,,,,,,,,,,,,,,722.1452890100045,None,722.1452890100045,None,left,1,2.326795463988674,722.1452890100045,None,,,,,,,,,,,,,,,,,2,26,m,2021_Apr_09_1727,ldt_en_hi,2021.1.3,1445.3039177702797,
,,,,,,,,,,,,सिपाही,empty,right,7,,,,,,,,,,,,,0,70,70,27,,,,,,,,,,,,,,,,,None,728.1024320380093,None,,,,,,,,,,,,,,,,,,,,,,,,,,,,,,,,724.9777468050015,None,724.9777468050015,None,left,0,3.123145781995845,724.9777468050015,None,,,,,,,,,,,,,,,,,2,26,m,2021_Apr_09_1727,ldt_en_hi,2021.1.3,1445.3039177702797,
,,,,,,,,,,,,भावना,employer,right,7,,,,,,,,,,,,,0,71,71,24,,,,,,,,,,,,,,,,,None,730.3779156700039,None,,,,,,,,,,,,,,,,,,,,,,,,,,,,,,,,728.606454770008,None,728.606454770008,None,right,1,1.7699501939932816,728.606454770008,None,,,,,,,,,,,,,,,,,2,26,m,2021_Apr_09_1727,ldt_en_hi,2021.1.3,1445.3039177702797,
,,,,,,,,,,,,हानि,deaf,right,7,,,,,,,,,,,,,0,72,72,39,,,,,,,,,,,,,,,,,None,733.9320853450045,None,,,,,,,,,,,,,,,,,,,,,,,,,,,,,,,,730.8812551480078,None,730.8812551480078,None,left,0,3.049314781004796,730.8812551480078,None,,,,,,,,,,,,,,,,,2,26,m,2021_Apr_09_1727,ldt_en_hi,2021.1.3,1445.3039177702797,
,,,,,,,,,,,,टराव,tumor,left,9,,,,,,,,,,,,,0,73,73,68,,,,,,,,,,,,,,,,,None,736.8154276630084,None,,,,,,,,,,,,,,,,,,,,,,,,,,,,,,,,734.4358626600006,None,734.4358626600006,None,left,1,2.378000680007972,734.4358626600006,None,,,,,,,,,,,,,,,,,2,26,m,2021_Apr_09_1727,ldt_en_hi,2021.1.3,1445.3039177702797,
,,,,,,,,,,,,यूोप,builde,left,8,,,,,,,,,,,,,0,74,74,55,,,,,,,,,,,,,,,,,None,738.5717368540063,None,,,,,,,,,,,,,,,,,,,,,,,,,,,,,,,,737.3191335059964,None,737.3191335059964,None,left,1,1.2510429929970996,737.3191335059964,None,,,,,,,,,,,,,,,,,2,26,m,2021_Apr_09_1727,ldt_en_hi,2021.1.3,1445.3039177702797,
,,,,,,,,,,,,गाय,valuabzr,left,10,,,,,,,,,,,,,0,75,75,48,,,,,,,,,,,,,,,,,None,740.805717744006,None,,,,,,,,,,,,,,,,,,,,,,,,,,,,,,,,739.0756645130023,None,739.0756645130023,None,left,1,1.728502893995028,739.0756645130023,None,,,,,,,,,,,,,,,,,2,26,m,2021_Apr_09_1727,ldt_en_hi,2021.1.3,1445.3039177702797,
,,,,,,,,,,,,नेता,area,right,7,,,,,,,,,,,,,0,76,76,32,,,,,,,,,,,,,,,,,None,742.7212268650037,None,,,,,,,,,,,,,,,,,,,,,,,,,,,,,,,,741.3091275720071,None,741.3091275720071,None,right,1,1.4105941349989735,741.3091275720071,None,,,,,,,,,,,,,,,,,2,26,m,2021_Apr_09_1727,ldt_en_hi,2021.1.3,1445.3039177702797,
,,,,,,,,,,,,अनुबध,leab,left,8,,,,,,,,,,,,,0,77,77,59,,,,,,,,,,,,,,,,,None,744.9205678989965,None,,,,,,,,,,,,,,,,,,,,,,,,,,,,,,,,743.2248718680057,None,743.2248718680057,None,left,1,1.6941816369944718,743.2248718680057,None,,,,,,,,,,,,,,,,,2,26,m,2021_Apr_09_1727,ldt_en_hi,2021.1.3,1445.3039177702797,
,,,,,,,,,,,,जापान,cheat,right,7,,,,,,,,,,,,,0,78,78,22,,,,,,,,,,,,,,,,,None,748.1078873380029,None,,,,,,,,,,,,,,,,,,,,,,,,,,,,,,,,745.4245524520084,None,745.4245524520084,None,right,1,2.6818411120038945,745.4245524520084,None,,,,,,,,,,,,,,,,,2,26,m,2021_Apr_09_1727,ldt_en_hi,2021.1.3,1445.3039177702797,
,,,,,,,,,,,,नल,ltbster,left,10,,,,,,,,,,,,,0,79,79,47,,,,,,,,,,,,,,,,,None,749.7444826440042,None,,,,,,,,,,,,,,,,,,,,,,,,,,,,,,,,748.6112211700092,None,748.6112211700092,None,left,1,1.1317126999929314,748.6112211700092,None,,,,,,,,,,,,,,,,,2,26,m,2021_Apr_09_1727,ldt_en_hi,2021.1.3,1445.3039177702797,
,,,,,,,,,,,,गायक,dancer,right,6,,,,,,,,,,,,,1,0,80,18,,,,,,,,,,,,,,,,,None,751.7890472550062,None,,,,,,,,,,,,,,,,,,,,,,,,,,,,,,,,750.2485430050001,None,750.2485430050001,None,right,1,1.5387119130027713,750.2485430050001,None,,,,,,,,,,,,,,,,,2,26,m,2021_Apr_09_1727,ldt_en_hi,2021.1.3,1445.3039177702797,
,,,,,,,,,,,,टराव,lobster,left,9,,,,,,,,,,,,,1,1,81,78,,,,,,,,,,,,,,,,,None,754.5223471299978,None,,,,,,,,,,,,,,,,,,,,,,,,,,,,,,,,752.2926444650075,None,752.2926444650075,None,left,1,2.2281972199998563,752.2926444650075,None,,,,,,,,,,,,,,,,,2,26,m,2021_Apr_09_1727,ldt_en_hi,2021.1.3,1445.3039177702797,
,,,,,,,,,,,,मदान,gway,left,8,,,,,,,,,,,,,1,2,82,57,,,,,,,,,,,,,,,,,None,756.8646501490002,None,,,,,,,,,,,,,,,,,,,,,,,,,,,,,,,,755.0261811469973,None,755.0261811469973,None,left,1,1.8369537750113523,755.0261811469973,None,,,,,,,,,,,,,,,,,2,26,m,2021_Apr_09_1727,ldt_en_hi,2021.1.3,1445.3039177702797,
,,,,,,,,,,,,पतल,dival,left,8,,,,,,,,,,,,,1,3,83,60,,,,,,,,,,,,,,,,,None,759.9859485530033,None,,,,,,,,,,,,,,,,,,,,,,,,,,,,,,,,757.36832705501,None,757.36832705501,None,left,1,2.6161020699946675,757.36832705501,None,,,,,,,,,,,,,,,,,2,26,m,2021_Apr_09_1727,ldt_en_hi,2021.1.3,1445.3039177702797,
,,,,,,,,,,,,बातचीत,busg,left,10,,,,,,,,,,,,,1,4,84,43,,,,,,,,,,,,,,,,,None,761.9118795820104,None,,,,,,,,,,,,,,,,,,,,,,,,,,,,,,,,760.4898523739976,None,760.4898523739976,None,left,1,1.4204719730041688,760.4898523739976,None,,,,,,,,,,,,,,,,,2,26,m,2021_Apr_09_1727,ldt_en_hi,2021.1.3,1445.3039177702797,
,,,,,,,,,,,,असमल,beaufifsl,left,8,,,,,,,,,,,,,1,5,85,66,,,,,,,,,,,,,,,,,None,763.9754381969979,None,,,,,,,,,,,,,,,,,,,,,,,,,,,,,,,,762.4156423750101,None,762.4156423750101,None,left,1,1.5582683899992844,762.4156423750101,None,,,,,,,,,,,,,,,,,2,26,m,2021_Apr_09_1727,ldt_en_hi,2021.1.3,1445.3039177702797,
,,,,,,,,,,,,नाजु,ceok,left,8,,,,,,,,,,,,,1,6,86,58,,,,,,,,,,,,,,,,,None,766.4634295870055,None,,,,,,,,,,,,,,,,,,,,,,,,,,,,,,,,764.4789856270072,None,764.4789856270072,None,left,1,1.9829658469971037,764.4789856270072,None,,,,,,,,,,,,,,,,,2,26,m,2021_Apr_09_1727,ldt_en_hi,2021.1.3,1445.3039177702797,
,,,,,,,,,,,,जापान,china,right,6,,,,,,,,,,,,,1,7,87,14,,,,,,,,,,,,,,,,,None,768.0686827680038,None,,,,,,,,,,,,,,,,,,,,,,,,,,,,,,,,766.9676314969984,None,766.9676314969984,None,right,1,1.0994489069998963,766.9676314969984,None,,,,,,,,,,,,,,,,,2,26,m,2021_Apr_09_1727,ldt_en_hi,2021.1.3,1445.3039177702797,
,,,,,,,,,,,,नल,ltbster,left,10,,,,,,,,,,,,,1,8,88,47,,,,,,,,,,,,,,,,,None,770.2735869690077,None,,,,,,,,,,,,,,,,,,,,,,,,,,,,,,,,768.5726108770032,None,768.5726108770032,None,left,1,1.6994225270027528,768.5726108770032,None,,,,,,,,,,,,,,,,,2,26,m,2021_Apr_09_1727,ldt_en_hi,2021.1.3,1445.3039177702797,
,,,,,,,,,,,,टराव,tumor,left,9,,,,,,,,,,,,,1,9,89,68,,,,,,,,,,,,,,,,,None,774.493363829999,None,,,,,,,,,,,,,,,,,,,,,,,,,,,,,,,,770.7775611340039,None,770.7775611340039,None,right,0,3.7140119969990337,770.7775611340039,None,,,,,,,,,,,,,,,,,2,26,m,2021_Apr_09_1727,ldt_en_hi,2021.1.3,1445.3039177702797,
,,,,,,,,,,,,संट,kitchen,left,9,,,,,,,,,,,,,1,10,90,76,,,,,,,,,,,,,,,,,None,779.1301095450035,None,,,,,,,,,,,,,,,,,,,,,,,,,,,,,,,,774.997293531007,None,774.997293531007,None,left,1,4.131294446007814,774.997293531007,None,,,,,,,,,,,,,,,,,2,26,m,2021_Apr_09_1727,ldt_en_hi,2021.1.3,1445.3039177702797,
,,,,,,,,,,,,गेंद,bat,right,6,,,,,,,,,,,,,1,11,91,4,,,,,,,,,,,,,,,,,None,782.3026214889978,None,,,,,,,,,,,,,,,,,,,,,,,,,,,,,,,,779.634112765998,None,779.634112765998,None,right,1,2.666984230003436,779.634112765998,None,,,,,,,,,,,,,,,,,2,26,m,2021_Apr_09_1727,ldt_en_hi,2021.1.3,1445.3039177702797,
,,,,,,,,,,,,विमान,decision,right,7,,,,,,,,,,,,,1,12,92,31,,,,,,,,,,,,,,,,,None,784.6206277489982,None,,,,,,,,,,,,,,,,,,,,,,,,,,,,,,,,782.8064960430056,None,782.8064960430056,None,left,0,1.8126200900005642,782.8064960430056,None,,,,,,,,,,,,,,,,,2,26,m,2021_Apr_09_1727,ldt_en_hi,2021.1.3,1445.3039177702797,
,,,,,,,,,,,,भीड़,crowd,right,6,,,,,,,,,,,,,1,13,93,17,,,,,,,,,,,,,,,,,None,786.1563536850008,None,,,,,,,,,,,,,,,,,,,,,,,,,,,,,,,,785.1241532770073,None,785.1241532770073,None,right,1,1.0306949810037622,785.1241532770073,None,,,,,,,,,,,,,,,,,2,26,m,2021_Apr_09_1727,ldt_en_hi,2021.1.3,1445.3039177702797,
,,,,,,,,,,,,नेता,area,right,7,,,,,,,,,,,,,1,14,94,32,,,,,,,,,,,,,,,,,None,788.3400834210042,None,,,,,,,,,,,,,,,,,,,,,,,,,,,,,,,,786.6596916810086,None,786.6596916810086,None,right,1,1.6788754490116844,786.6596916810086,None,,,,,,,,,,,,,,,,,2,26,m,2021_Apr_09_1727,ldt_en_hi,2021.1.3,1445.3039177702797,
,,,,,,,,,,,,हानि,deaf,right,7,,,,,,,,,,,,,1,15,95,39,,,,,,,,,,,,,,,,,None,789.6924915749987,None,,,,,,,,,,,,,,,,,,,,,,,,,,,,,,,,788.8436505490099,None,788.8436505490099,None,left,0,0.8473246490029851,788.8436505490099,None,,,,,,,,,,,,,,,,,2,26,m,2021_Apr_09_1727,ldt_en_hi,2021.1.3,1445.3039177702797,
,,,,,,,,,,,,जापान,cheat,right,7,,,,,,,,,,,,,1,16,96,22,,,,,,,,,,,,,,,,,None,791.9272090879967,None,,,,,,,,,,,,,,,,,,,,,,,,,,,,,,,,790.1961963479989,None,790.1961963479989,None,right,1,1.7294465550075984,790.1961963479989,None,,,,,,,,,,,,,,,,,2,26,m,2021_Apr_09_1727,ldt_en_hi,2021.1.3,1445.3039177702797,
,,,,,,,,,,,,कंबल,poldcemps,left,10,,,,,,,,,,,,,1,17,97,46,,,,,,,,,,,,,,,,,None,794.754268033008,None,,,,,,,,,,,,,,,,,,,,,,,,,,,,,,,,792.4311085899972,None,792.4311085899972,None,left,1,2.321649373989203,792.4311085899972,None,,,,,,,,,,,,,,,,,2,26,m,2021_Apr_09_1727,ldt_en_hi,2021.1.3,1445.3039177702797,
,,,,,,,,,,,,पागल,crazy,right,6,,,,,,,,,,,,,1,18,98,16,,,,,,,,,,,,,,,,,None,796.829950956002,None,,,,,,,,,,,,,,,,,,,,,,,,,,,,,,,,795.2579229530093,None,795.2579229530093,None,right,1,1.5701499809947563,795.2579229530093,None,,,,,,,,,,,,,,,,,2,26,m,2021_Apr_09_1727,ldt_en_hi,2021.1.3,1445.3039177702797,
,,,,,,,,,,,,बाइन,atnton,left,8,,,,,,,,,,,,,1,19,99,61,,,,,,,,,,,,,,,,,None,800.6837846690032,None,,,,,,,,,,,,,,,,,,,,,,,,,,,,,,,,797.3333237830084,None,797.3333237830084,None,left,1,3.3489852670027176,797.3333237830084,None,,,,,,,,,,,,,,,,,2,26,m,2021_Apr_09_1727,ldt_en_hi,2021.1.3,1445.3039177702797,
,,,,,,,,,,,,मगरम,hodker,left,8,,,,,,,,,,,,,1,20,100,54,,,,,,,,,,,,,,,,,None,803.2036754300061,None,,,,,,,,,,,,,,,,,,,,,,,,,,,,,,,,801.1875292059995,None,801.1875292059995,None,left,1,2.014621779002482,801.1875292059995,None,,,,,,,,,,,,,,,,,2,26,m,2021_Apr_09_1727,ldt_en_hi,2021.1.3,1445.3039177702797,
,,,,,,,,,,,,केला,diary,right,7,,,,,,,,,,,,,1,21,101,37,,,,,,,,,,,,,,,,,None,805.1391662620008,None,,,,,,,,,,,,,,,,,,,,,,,,,,,,,,,,803.7072563679976,None,803.7072563679976,None,right,1,1.4301349580055103,803.7072563679976,None,,,,,,,,,,,,,,,,,2,26,m,2021_Apr_09_1727,ldt_en_hi,2021.1.3,1445.3039177702797,
,,,,,,,,,,,,गाड़ी,auto,right,6,,,,,,,,,,,,,1,22,102,2,,,,,,,,,,,,,,,,,None,806.2222762760066,None,,,,,,,,,,,,,,,,,,,,,,,,,,,,,,,,805.6426810160046,None,805.6426810160046,None,right,1,0.5780883749976056,805.6426810160046,None,,,,,,,,,,,,,,,,,2,26,m,2021_Apr_09_1727,ldt_en_hi,2021.1.3,1445.3039177702797,
,,,,,,,,,,,,सावधान,capmpiwity,left,10,,,,,,,,,,,,,1,23,103,50,,,,,,,,,,,,,,,,,None,808.7675207740103,None,,,,,,,,,,,,,,,,,,,,,,,,,,,,,,,,806.7257511180069,None,806.7257511180069,None,left,1,2.0402504360099556,806.7257511180069,None,,,,,,,,,,,,,,,,,2,26,m,2021_Apr_09_1727,ldt_en_hi,2021.1.3,1445.3039177702797,
,,,,,,,,,,,,आतंक,average,right,7,,,,,,,,,,,,,1,24,104,23,,,,,,,,,,,,,,,,,None,810.989848836005,None,,,,,,,,,,,,,,,,,,,,,,,,,,,,,,,,809.271527186007,None,809.271527186007,None,right,1,1.7165125680039637,809.271527186007,None,,,,,,,,,,,,,,,,,2,26,m,2021_Apr_09_1727,ldt_en_hi,2021.1.3,1445.3039177702797,
,,,,,,,,,,,,नक,bnat,left,8,,,,,,,,,,,,,1,25,105,65,,,,,,,,,,,,,,,,,None,813.0533515930001,None,,,,,,,,,,,,,,,,,,,,,,,,,,,,,,,,811.4930903210043,None,811.4930903210043,None,left,1,1.5586988699942594,811.4930903210043,None,,,,,,,,,,,,,,,,,2,26,m,2021_Apr_09_1727,ldt_en_hi,2021.1.3,1445.3039177702797,
,,,,,,,,,,,,तीर,bow,right,6,,,,,,,,,,,,,1,26,106,8,,,,,,,,,,,,,,,,,None,815.0237562219991,None,,,,,,,,,,,,,,,,,,,,,,,,,,,,,,,,813.556766573005,None,813.556766573005,None,right,1,1.4654644569964148,813.556766573005,None,,,,,,,,,,,,,,,,,2,26,m,2021_Apr_09_1727,ldt_en_hi,2021.1.3,1445.3039177702797,
,,,,,,,,,,,,अनुबध,leab,left,8,,,,,,,,,,,,,1,27,107,59,,,,,,,,,,,,,,,,,None,817.095182642006,None,,,,,,,,,,,,,,,,,,,,,,,,,,,,,,,,815.5273803949967,None,815.5273803949967,None,left,1,1.5662734810030088,815.5273803949967,None,,,,,,,,,,,,,,,,,2,26,m,2021_Apr_09_1727,ldt_en_hi,2021.1.3,1445.3039177702797,
,,,,,,,,,,,,गहा,chulk,left,8,,,,,,,,,,,,,1,28,108,56,,,,,,,,,,,,,,,,,None,821.0967093729996,None,,,,,,,,,,,,,,,,,,,,,,,,,,,,,,,,817.5990453109989,None,817.5990453109989,None,left,1,3.4961155859928112,817.5990453109989,None,,,,,,,,,,,,,,,,,2,26,m,2021_Apr_09_1727,ldt_en_hi,2021.1.3,1445.3039177702797,
,,,,,,,,,,,,असमल,rug,left,9,,,,,,,,,,,,,1,29,109,74,,,,,,,,,,,,,,,,,None,823.7580113599979,None,,,,,,,,,,,,,,,,,,,,,,,,,,,,,,,,821.6006353130069,None,821.6006353130069,None,left,1,2.1558634679968236,821.6006353130069,None,,,,,,,,,,,,,,,,,2,26,m,2021_Apr_09_1727,ldt_en_hi,2021.1.3,1445.3039177702797,
,,,,,,,,,,,,अभिनय,calm,right,7,,,,,,,,,,,,,1,30,110,35,,,,,,,,,,,,,,,,,None,825.5050314719992,None,,,,,,,,,,,,,,,,,,,,,,,,,,,,,,,,824.261880888007,None,824.261880888007,None,left,0,1.2416350550047355,824.261880888007,None,,,,,,,,,,,,,,,,,2,26,m,2021_Apr_09_1727,ldt_en_hi,2021.1.3,1445.3039177702797,
,,,,,,,,,,,,मेंढक,doe,right,7,,,,,,,,,,,,,1,31,111,36,,,,,,,,,,,,,,,,,None,827.6523436270072,None,,,,,,,,,,,,,,,,,,,,,,,,,,,,,,,,826.0089622840023,None,826.0089622840023,None,left,0,1.6416336859983858,826.0089622840023,None,,,,,,,,,,,,,,,,,2,26,m,2021_Apr_09_1727,ldt_en_hi,2021.1.3,1445.3039177702797,
,,,,,,,,,,,,जोकर,eyes,right,7,,,,,,,,,,,,,1,32,112,38,,,,,,,,,,,,,,,,,None,829.4083279220067,None,,,,,,,,,,,,,,,,,,,,,,,,,,,,,,,,828.1557521500072,None,828.1557521500072,None,right,1,1.2510287940094713,828.1557521500072,None,,,,,,,,,,,,,,,,,2,26,m,2021_Apr_09_1727,ldt_en_hi,2021.1.3,1445.3039177702797,
,,,,,,,,,,,,अजमदा,tricycle,left,9,,,,,,,,,,,,,1,33,113,72,,,,,,,,,,,,,,,,,None,831.5855141189968,None,,,,,,,,,,,,,,,,,,,,,,,,,,,,,,,,829.9120904300071,None,829.9120904300071,None,left,1,1.6718834719940787,829.9120904300071,None,,,,,,,,,,,,,,,,,2,26,m,2021_Apr_09_1727,ldt_en_hi,2021.1.3,1445.3039177702797,
,,,,,,,,,,,,मैदान,blush,right,7,,,,,,,,,,,,,1,34,114,26,,,,,,,,,,,,,,,,,None,833.1871179230075,None,,,,,,,,,,,,,,,,,,,,,,,,,,,,,,,,832.0893472580065,None,832.0893472580065,None,right,1,1.0958892810012912,832.0893472580065,None,,,,,,,,,,,,,,,,,2,26,m,2021_Apr_09_1727,ldt_en_hi,2021.1.3,1445.3039177702797,
,,,,,,,,,,,,बहस,blaokbonvd,left,10,,,,,,,,,,,,,1,35,115,45,,,,,,,,,,,,,,,,,None,835.4069935630105,None,,,,,,,,,,,,,,,,,,,,,,,,,,,,,,,,833.6908591829997,None,833.6908591829997,None,left,1,1.7145964299998013,833.6908591829997,None,,,,,,,,,,,,,,,,,2,26,m,2021_Apr_09_1727,ldt_en_hi,2021.1.3,1445.3039177702797,
,,,,,,,,,,,,लड़की,boy,right,6,,,,,,,,,,,,,1,36,116,10,,,,,,,,,,,,,,,,,None,836.78610707201,None,,,,,,,,,,,,,,,,,,,,,,,,,,,,,,,,835.9106028070091,None,835.9106028070091,None,right,1,0.8739424149971455,835.9106028070091,None,,,,,,,,,,,,,,,,,2,26,m,2021_Apr_09_1727,ldt_en_hi,2021.1.3,1445.3039177702797,
,,,,,,,,,,,,यूोप,mustache,left,9,,,,,,,,,,,,,1,37,117,71,,,,,,,,,,,,,,,,,None,838.7395313849993,None,,,,,,,,,,,,,,,,,,,,,,,,,,,,,,,,837.2900104300061,None,837.2900104300061,None,left,1,1.4480128019931726,837.2900104300061,None,,,,,,,,,,,,,,,,,2,26,m,2021_Apr_09_1727,ldt_en_hi,2021.1.3,1445.3039177702797,
,,,,,,,,,,,,घर,blow,right,7,,,,,,,,,,,,,1,38,118,28,,,,,,,,,,,,,,,,,None,840.4713626669982,None,,,,,,,,,,,,,,,,,,,,,,,,,,,,,,,,839.242913848997,None,839.242913848997,None,right,1,1.2268904160009697,839.242913848997,None,,,,,,,,,,,,,,,,,2,26,m,2021_Apr_09_1727,ldt_en_hi,2021.1.3,1445.3039177702797,
,,,,,,,,,,,,कोमल,cure,right,7,,,,,,,,,,,,,1,39,119,34,,,,,,,,,,,,,,,,,None,842.1105114780075,None,,,,,,,,,,,,,,,,,,,,,,,,,,,,,,,,840.9750516260101,None,840.9750516260101,None,right,1,1.133891521996702,840.9750516260101,None,,,,,,,,,,,,,,,,,2,26,m,2021_Apr_09_1727,ldt_en_hi,2021.1.3,1445.3039177702797,
,,,,,,,,,,,,गहना,diamond,right,6,,,,,,,,,,,,,1,40,120,20,,,,,,,,,,,,,,,,,None,843.5420212510071,None,,,,,,,,,,,,,,,,,,,,,,,,,,,,,,,,842.614920100008,None,842.614920100008,None,right,1,0.9255456699902425,842.614920100008,None,,,,,,,,,,,,,,,,,2,26,m,2021_Apr_09_1727,ldt_en_hi,2021.1.3,1445.3039177702797,
,,,,,,,,,,,,गणित,biology,right,6,,,,,,,,,,,,,1,41,121,6,,,,,,,,,,,,,,,,,None,845.5350618329976,None,,,,,,,,,,,,,,,,,,,,,,,,,,,,,,,,844.0460577890044,None,844.0460577890044,None,left,0,1.4874398950050818,844.0460577890044,None,,,,,,,,,,,,,,,,,2,26,m,2021_Apr_09_1727,ldt_en_hi,2021.1.3,1445.3039177702797,
,,,,,,,,,,,,गाजर,dasewn,left,10,,,,,,,,,,,,,1,42,122,49,,,,,,,,,,,,,,,,,None,847.7920183800015,None,,,,,,,,,,,,,,,,,,,,,,,,,,,,,,,,846.0387043860101,None,846.0387043860101,None,left,1,1.7517615550023038,846.0387043860101,None,,,,,,,,,,,,,,,,,2,26,m,2021_Apr_09_1727,ldt_en_hi,2021.1.3,1445.3039177702797,
,,,,,,,,,,,,परावान,octopus,left,9,,,,,,,,,,,,,1,43,123,69,,,,,,,,,,,,,,,,,None,850.3656280520081,None,,,,,,,,,,,,,,,,,,,,,,,,,,,,,,,,848.295763615999,None,848.295763615999,None,left,1,2.06799215299543,848.295763615999,None,,,,,,,,,,,,,,,,,2,26,m,2021_Apr_09_1727,ldt_en_hi,2021.1.3,1445.3039177702797,
,,,,,,,,,,,,फूल,suggeyf,left,10,,,,,,,,,,,,,1,44,124,53,,,,,,,,,,,,,,,,,None,853.2430235619977,None,,,,,,,,,,,,,,,,,,,,,,,,,,,,,,,,850.8689984200028,None,850.8689984200028,None,left,1,2.3724963440035935,850.8689984200028,None,,,,,,,,,,,,,,,,,2,26,m,2021_Apr_09_1727,ldt_en_hi,2021.1.3,1445.3039177702797,
,,,,,,,,,,,,साल,age,right,6,,,,,,,,,,,,,1,45,125,0,,,,,,,,,,,,,,,,,None,855.0783976509992,None,,,,,,,,,,,,,,,,,,,,,,,,,,,,,,,,853.7463095120038,None,853.7463095120038,None,right,1,1.3305626529909205,853.7463095120038,None,,,,,,,,,,,,,,,,,2,26,m,2021_Apr_09_1727,ldt_en_hi,2021.1.3,1445.3039177702797,
,,,,,,,,,,,,काम,imhge,left,10,,,,,,,,,,,,,1,46,126,40,,,,,,,,,,,,,,,,,None,857.221496676997,None,,,,,,,,,,,,,,,,,,,,,,,,,,,,,,,,855.582520128999,None,855.582520128999,None,left,1,1.6374315959983505,855.582520128999,None,,,,,,,,,,,,,,,,,2,26,m,2021_Apr_09_1727,ldt_en_hi,2021.1.3,1445.3039177702797,
,,,,,,,,,,,,रात,day,right,6,,,,,,,,,,,,,1,47,127,19,,,,,,,,,,,,,,,,,None,858.7989607530035,None,,,,,,,,,,,,,,,,,,,,,,,,,,,,,,,,857.7251429280004,None,857.7251429280004,None,right,1,1.0722314869926777,857.7251429280004,None,,,,,,,,,,,,,,,,,2,26,m,2021_Apr_09_1727,ldt_en_hi,2021.1.3,1445.3039177702797,
,,,,,,,,,,,,भावना,employer,right,7,,,,,,,,,,,,,1,48,128,24,,,,,,,,,,,,,,,,,None,860.8152977170103,None,,,,,,,,,,,,,,,,,,,,,,,,,,,,,,,,859.3025964880071,None,859.3025964880071,None,right,1,1.5111676360102138,859.3025964880071,None,,,,,,,,,,,,,,,,,2,26,m,2021_Apr_09_1727,ldt_en_hi,2021.1.3,1445.3039177702797,
,,,,,,,,,,,,खेती,dollars,right,7,,,,,,,,,,,,,1,49,129,21,,,,,,,,,,,,,,,,,None,862.4716820410104,None,,,,,,,,,,,,,,,,,,,,,,,,,,,,,,,,861.3193023740023,None,861.3193023740023,None,right,1,1.1508172920002835,861.3193023740023,None,,,,,,,,,,,,,,,,,2,26,m,2021_Apr_09_1727,ldt_en_hi,2021.1.3,1445.3039177702797,
,,,,,,,,,,,,वन,chaos,right,7,,,,,,,,,,,,,1,50,130,33,,,,,,,,,,,,,,,,,None,864.8439021960075,None,,,,,,,,,,,,,,,,,,,,,,,,,,,,,,,,862.9752357890102,None,862.9752357890102,None,right,1,1.8671013370039873,862.9752357890102,None,,,,,,,,,,,,,,,,,2,26,m,2021_Apr_09_1727,ldt_en_hi,2021.1.3,1445.3039177702797,
,,,,,,,,,,,,महंगा,cheap,right,6,,,,,,,,,,,,,1,51,131,13,,,,,,,,,,,,,,,,,None,866.1643235219963,None,,,,,,,,,,,,,,,,,,,,,,,,,,,,,,,,865.3479781110073,None,865.3479781110073,None,right,1,0.8148358049948001,865.3479781110073,None,,,,,,,,,,,,,,,,,2,26,m,2021_Apr_09_1727,ldt_en_hi,2021.1.3,1445.3039177702797,
,,,,,,,,,,,,केल,cauliflower,left,9,,,,,,,,,,,,,1,52,132,73,,,,,,,,,,,,,,,,,None,871.6710012420081,None,,,,,,,,,,,,,,,,,,,,,,,,,,,,,,,,866.6684205659985,None,866.6684205659985,None,right,0,5.000746777994209,866.6684205659985,None,,,,,,,,,,,,,,,,,2,26,m,2021_Apr_09_1727,ldt_en_hi,2021.1.3,1445.3039177702797,
,,,,,,,,,,,,वकी,averake,left,8,,,,,,,,,,,,,1,53,133,63,,,,,,,,,,,,,,,,,None,874.4957483379985,None,,,,,,,,,,,,,,,,,,,,,,,,,,,,,,,,872.1749866129976,None,872.1749866129976,None,left,1,2.3190335539984517,872.1749866129976,None,,,,,,,,,,,,,,,,,2,26,m,2021_Apr_09_1727,ldt_en_hi,2021.1.3,1445.3039177702797,
,,,,,,,,,,,,लड़ाकू,boxer,right,6,,,,,,,,,,,,,1,54,134,9,,,,,,,,,,,,,,,,,None,876.5459970280062,None,,,,,,,,,,,,,,,,,,,,,,,,,,,,,,,,874.9997685520066,None,874.9997685520066,None,right,1,1.5446492189948913,874.9997685520066,None,,,,,,,,,,,,,,,,,2,26,m,2021_Apr_09_1727,ldt_en_hi,2021.1.3,1445.3039177702797,
,,,,,,,,,,,,खोज,expensive,right,7,,,,,,,,,,,,,1,55,135,29,,,,,,,,,,,,,,,,,None,878.5433890870045,None,,,,,,,,,,,,,,,,,,,,,,,,,,,,,,,,877.0500025790097,None,877.0500025790097,None,right,1,1.4918567509885179,877.0500025790097,None,,,,,,,,,,,,,,,,,2,26,m,2021_Apr_09_1727,ldt_en_hi,2021.1.3,1445.3039177702797,
,,,,,,,,,,,,संट,subtraction,left,9,,,,,,,,,,,,,1,56,136,67,,,,,,,,,,,,,,,,,None,880.0197788079968,None,,,,,,,,,,,,,,,,,,,,,,,,,,,,,,,,879.0470143139974,None,879.0470143139974,None,left,1,0.9712435900000855,879.0470143139974,None,,,,,,,,,,,,,,,,,2,26,m,2021_Apr_09_1727,ldt_en_hi,2021.1.3,1445.3039177702797,
,,,,,,,,,,,,लड़की,baby,right,6,,,,,,,,,,,,,1,57,137,3,,,,,,,,,,,,,,,,,None,881.3461691580014,None,,,,,,,,,,,,,,,,,,,,,,,,,,,,,,,,880.5232645369979,None,880.5232645369979,None,right,1,0.8213434029894415,880.5232645369979,None,,,,,,,,,,,,,,,,,2,26,m,2021_Apr_09_1727,ldt_en_hi,2021.1.3,1445.3039177702797,
,,,,,,,,,,,,अभिनय,disbhvmeve,left,10,,,,,,,,,,,,,1,58,138,41,,,,,,,,,,,,,,,,,None,882.7644760080002,None,,,,,,,,,,,,,,,,,,,,,,,,,,,,,,,,881.8501102430018,None,881.8501102430018,None,left,1,0.9128049940045457,881.8501102430018,None,,,,,,,,,,,,,,,,,2,26,m,2021_Apr_09_1727,ldt_en_hi,2021.1.3,1445.3039177702797,
,,,,,,,,,,,,गुफा,perigrm,left,10,,,,,,,,,,,,,1,59,139,51,,,,,,,,,,,,,,,,,None,885.0176148850005,None,,,,,,,,,,,,,,,,,,,,,,,,,,,,,,,,883.268488503003,None,883.268488503003,None,right,0,1.7476092949946178,883.268488503003,None,,,,,,,,,,,,,,,,,2,26,m,2021_Apr_09_1727,ldt_en_hi,2021.1.3,1445.3039177702797,
,,,,,,,,,,,,शेर,lion,right,6,,,,,,,,,,,,,1,60,140,1,,,,,,,,,,,,,,,,,None,887.1312275820092,None,,,,,,,,,,,,,,,,,,,,,,,,,,,,,,,,885.5215474080032,None,885.5215474080032,None,right,1,1.6081075560068712,885.5215474080032,None,,,,,,,,,,,,,,,,,2,26,m,2021_Apr_09_1727,ldt_en_hi,2021.1.3,1445.3039177702797,
,,,,,,,,,,,,मगरम,bow,left,9,,,,,,,,,,,,,1,61,141,70,,,,,,,,,,,,,,,,,None,889.7468603370071,None,,,,,,,,,,,,,,,,,,,,,,,,,,,,,,,,887.6346857870085,None,887.6346857870085,None,left,1,2.1104157279914944,887.6346857870085,None,,,,,,,,,,,,,,,,,2,26,m,2021_Apr_09_1727,ldt_en_hi,2021.1.3,1445.3039177702797,
,,,,,,,,,,,,मछली,ucter,left,10,,,,,,,,,,,,,1,62,142,52,,,,,,,,,,,,,,,,,None,891.715157426006,None,,,,,,,,,,,,,,,,,,,,,,,,,,,,,,,,890.2507173409977,None,890.2507173409977,None,left,1,1.462878249003552,890.2507173409977,None,,,,,,,,,,,,,,,,,2,26,m,2021_Apr_09_1727,ldt_en_hi,2021.1.3,1445.3039177702797,
,,,,,,,,,,,,शहनाई,decay,right,7,,,,,,,,,,,,,1,63,143,30,,,,,,,,,,,,,,,,,None,896.8038731080014,None,,,,,,,,,,,,,,,,,,,,,,,,,,,,,,,,892.2190210510016,None,892.2190210510016,None,right,1,4.583046500003547,892.2190210510016,None,,,,,,,,,,,,,,,,,2,26,m,2021_Apr_09_1727,ldt_en_hi,2021.1.3,1445.3039177702797,
,,,,,,,,,,,,सुंदरता,beast,right,6,,,,,,,,,,,,,1,64,144,5,,,,,,,,,,,,,,,,,None,898.830145993008,None,,,,,,,,,,,,,,,,,,,,,,,,,,,,,,,,897.3076356899983,None,897.3076356899983,None,right,1,1.5210020300000906,897.3076356899983,None,,,,,,,,,,,,,,,,,2,26,m,2021_Apr_09_1727,ldt_en_hi,2021.1.3,1445.3039177702797,
,,,,,,,,,,,,यूोप,builde,left,8,,,,,,,,,,,,,1,65,145,55,,,,,,,,,,,,,,,,,None,900.3625508050027,None,,,,,,,,,,,,,,,,,,,,,,,,,,,,,,,,899.3343088980037,None,899.3343088980037,None,left,1,1.026730747995316,899.3343088980037,None,,,,,,,,,,,,,,,,,2,26,m,2021_Apr_09_1727,ldt_en_hi,2021.1.3,1445.3039177702797,
,,,,,,,,,,,,अनाज,breakfast,right,6,,,,,,,,,,,,,1,66,146,11,,,,,,,,,,,,,,,,,None,901.9637539920077,None,,,,,,,,,,,,,,,,,,,,,,,,,,,,,,,,900.8660242210026,None,900.8660242210026,None,left,0,1.096204398010741,900.8660242210026,None,,,,,,,,,,,,,,,,,2,26,m,2021_Apr_09_1727,ldt_en_hi,2021.1.3,1445.3039177702797,
