w_word1,w_word2,w_corrAns,w_category,word1,word2,corrAns,category,w_hword1,w_hword2,w_hcorrAns,w_hcategory,hword1,hword2,hcorrAns,hcategory,enwarmuptrials.thisRepN,enwarmuptrials.thisTrialN,enwarmuptrials.thisN,enwarmuptrials.thisIndex,en_trials.thisRepN,en_trials.thisTrialN,en_trials.thisN,en_trials.thisIndex,hiwarmuptrials.thisRepN,hiwarmuptrials.thisTrialN,hiwarmuptrials.thisN,hiwarmuptrials.thisIndex,hi_trials.thisRepN,hi_trials.thisTrialN,hi_trials.thisN,hi_trials.thisIndex,eninstrstim.started,eninstrstim.stopped,enkbinstr.keys,enkbinstr.corr,enkbinstr.rt,enkbinstr.started,enkbinstr.stopped,enwarmupw1.started,enwarmupw1.stopped,enwarmupw2.started,enwarmupw2.stopped,enwarmupkb.keys,enwarmupkb.corr,enwarmupkb.rt,enwarmupkb.started,enwarmupkb.stopped,restresp.keys,restresp.started,restresp.stopped,startexpprompt.started,startexpprompt.stopped,startexpkbresp.keys,startexpkbresp.rt,startexpkbresp.started,startexpkbresp.stopped,entrialw1.started,entrialw1.stopped,entrialw2.started,entrialw2.stopped,enkbresp.keys,enkbresp.corr,enkbresp.rt,enkbresp.started,enkbresp.stopped,hiinstrstim.started,hiinstrstim.stopped,hikbinstr.keys,hikbinstr.corr,hikbinstr.rt,hikbinstr.started,hikbinstr.stopped,hiwarmupw1.started,hiwarmupw1.stopped,hiwarmupw2.started,hiwarmupw2.stopped,hiwarmupkb.keys,hiwarmupkb.corr,hiwarmupkb.rt,hiwarmupkb.started,hiwarmupkb.stopped,hitrialw1.started,hitrialw1.stopped,hitrialw2.started,hitrialw2.stopped,hikbresp.keys,hikbresp.corr,hikbresp.rt,hikbresp.started,hikbresp.stopped,hiskill.text,hiskill.started,hiskill.stopped,hirespskill.keys,hirespskill.rt,hirespskill.started,hirespskill.stopped,enskill_2.text,enskill_2.started,enskill_2.stopped,enrespskill_2.keys,enrespskill_2.rt,enrespskill_2.started,enrespskill_2.stopped,thankstext.started,thankstext.stopped,participant,age,gender,date,expName,psychopyVersion,frameRate,
,,,,,,,,,,,,,,,,,,,,,,,,,,,,,,,,16.15528527200513,None,right,0,19.459187676009606,16.15528527200513,None,,,,,,,,,,,,,,,,,,,,,,,,,,,,,,,,,,,,,,,,,,,,,,,,,,,,,,,,,,,,,,,,,,,,,3,26,m,2021_Apr_09_1744,ldt_en_hi,2021.1.3,1308.2813157965136,
fite,crack,left,4,,,,,,,,,,,,,0,0,0,2,,,,,,,,,,,,,,,,,,,,35.63594053100678,None,35.63594053100678,None,right,0,3.0719831510068616,35.63594053100678,None,None,38.70982018799987,None,,,,,,,,,,,,,,,,,,,,,,,,,,,,,,,,,,,,,,,,,,,,,,,,,,,,,,,,,3,26,m,2021_Apr_09_1744,ldt_en_hi,2021.1.3,1308.2813157965136,
sun,cepy,left,5,,,,,,,,,,,,,0,1,1,3,,,,,,,,,,,,,,,,,,,,39.21353790500143,None,39.21353790500143,None,right,0,4.745851842002594,39.21353790500143,None,None,43.960854632998235,None,,,,,,,,,,,,,,,,,,,,,,,,,,,,,,,,,,,,,,,,,,,,,,,,,,,,,,,,,3,26,m,2021_Apr_09_1744,ldt_en_hi,2021.1.3,1308.2813157965136,
whistle,england,right,2,,,,,,,,,,,,,0,2,2,0,,,,,,,,,,,,,,,,,,,,44.46416384300392,None,44.46416384300392,None,right,1,3.0935302849975415,44.46416384300392,None,None,47.559151902998565,None,,,,,,,,,,,,,,,,,,,,,,,,,,,,,,,,,,,,,,,,,,,,,,,,,,,,,,,,,3,26,m,2021_Apr_09_1744,ldt_en_hi,2021.1.3,1308.2813157965136,
mick,lofy,left,3,,,,,,,,,,,,,0,3,3,4,,,,,,,,,,,,,,,,,,,,48.06240570799855,None,48.06240570799855,None,left,1,2.9808477199985646,48.06240570799855,None,None,51.04471864500374,None,,,,,,,,,,,,,,,,,,,,,,,,,,,,,,,,,,,,,,,,,,,,,,,,,,,,,,,,,3,26,m,2021_Apr_09_1744,ldt_en_hi,2021.1.3,1308.2813157965136,
ash,ashtray,right,1,,,,,,,,,,,,,0,4,4,1,,,,,,,,,,,,,,,,,,,,51.548014985004556,None,51.548014985004556,None,left,0,1.780104945995845,51.548014985004556,None,None,53.329993132007075,None,,,,,,,,,,,,,,,,,,,,,,,,,,,,,,,,,,,,,,,,,,,,,,,,,,,,,,,,,3,26,m,2021_Apr_09_1744,ldt_en_hi,2021.1.3,1308.2813157965136,
,,,,,,,,,,,,,,,,,,,,,,,,,,,,,,,,,,,,,,,,,,,,,,,,,,,53.83145878900541,None,right,2.4339726220059674,53.83145878900541,None,,,,,,,,,,,,,,,,,,,,,,,,,,,,,,,,,,,,,,,,,,,,,,,,,,,3,26,m,2021_Apr_09_1744,ldt_en_hi,2021.1.3,1308.2813157965136,
,,,,,,,,,,,,,,,,,,,,,,,,,,,,,,,,,,,,,,,,,,,,,,,,None,56.266272344000754,None,,,,,,,,,,,,,,,,,,,,,,,,,,,,,,,,,,,,,,,,,,,,,,,,,,,,,,,,,3,26,m,2021_Apr_09_1744,ldt_en_hi,2021.1.3,1308.2813157965136,
,,,,quantity,beautiful,right,2,,,,,,,,,,,,,0,0,0,30,,,,,,,,,,,,,,,,,,,,,,,,,None,58.29133894300321,None,,,,,,,56.815034829007345,None,56.815034829007345,None,right,1,1.4742775409977185,56.815034829007345,None,,,,,,,,,,,,,,,,,,,,,,,,,,,,,,,,,,,,,,,,,,3,26,m,2021_Apr_09_1744,ldt_en_hi,2021.1.3,1308.2813157965136,
,,,,imhge,eyes,left,4,,,,,,,,,,,,,0,1,1,75,,,,,,,,,,,,,,,,,,,,,,,,,None,60.14255955899716,None,,,,,,,58.79488341700926,None,58.79488341700926,None,left,1,1.346192354001687,58.79488341700926,None,,,,,,,,,,,,,,,,,,,,,,,,,,,,,,,,,,,,,,,,,,3,26,m,2021_Apr_09_1744,ldt_en_hi,2021.1.3,1308.2813157965136,
,,,,policeman,cop,right,1,,,,,,,,,,,,,0,2,2,18,,,,,,,,,,,,,,,,,,,,,,,,,None,62.712573737007915,None,,,,,,,60.64645001699682,None,60.64645001699682,None,right,1,2.064636215000064,60.64645001699682,None,,,,,,,,,,,,,,,,,,,,,,,,,,,,,,,,,,,,,,,,,,3,26,m,2021_Apr_09_1744,ldt_en_hi,2021.1.3,1308.2813157965136,
,,,,adventure,bnat,left,5,,,,,,,,,,,,,0,3,3,62,,,,,,,,,,,,,,,,,,,,,,,,,None,65.02786568700685,None,,,,,,,63.224747401996865,None,63.224747401996865,None,left,1,1.8016091550089186,63.224747401996865,None,,,,,,,,,,,,,,,,,,,,,,,,,,,,,,,,,,,,,,,,,,3,26,m,2021_Apr_09_1744,ldt_en_hi,2021.1.3,1308.2813157965136,
,,,,valuabzr,additkos,left,3,,,,,,,,,,,,,0,4,4,42,,,,,,,,,,,,,,,,,,,,,,,,,None,67.4186811039981,None,,,,,,,65.53805456199916,None,65.53805456199916,None,left,1,1.8790841900045052,65.53805456199916,None,,,,,,,,,,,,,,,,,,,,,,,,,,,,,,,,,,,,,,,,,,3,26,m,2021_Apr_09_1744,ldt_en_hi,2021.1.3,1308.2813157965136,
,,,,lobster,crab,right,1,,,,,,,,,,,,,0,5,5,19,,,,,,,,,,,,,,,,,,,,,,,,,None,69.11966760799987,None,,,,,,,67.92218502600736,None,67.92218502600736,None,right,1,1.195946396997897,67.92218502600736,None,,,,,,,,,,,,,,,,,,,,,,,,,,,,,,,,,,,,,,,,,,3,26,m,2021_Apr_09_1744,ldt_en_hi,2021.1.3,1308.2813157965136,
,,,,busy,bored,right,1,,,,,,,,,,,,,0,6,6,11,,,,,,,,,,,,,,,,,,,,,,,,,None,70.6940445079963,None,,,,,,,69.62359505600762,None,69.62359505600762,None,right,1,1.0689130290120374,69.62359505600762,None,,,,,,,,,,,,,,,,,,,,,,,,,,,,,,,,,,,,,,,,,,3,26,m,2021_Apr_09_1744,ldt_en_hi,2021.1.3,1308.2813157965136,
,,,,ucter,arks,left,3,,,,,,,,,,,,,0,7,7,46,,,,,,,,,,,,,,,,,,,,,,,,,None,72.58915420800622,None,,,,,,,71.19796783500351,None,71.19796783500351,None,left,1,1.3896547089971136,71.19796783500351,None,,,,,,,,,,,,,,,,,,,,,,,,,,,,,,,,,,,,,,,,,,3,26,m,2021_Apr_09_1744,ldt_en_hi,2021.1.3,1308.2813157965136,
,,,,aczreis,duty,left,4,,,,,,,,,,,,,0,8,8,67,,,,,,,,,,,,,,,,,,,,,,,,,None,74.44375549400866,None,,,,,,,73.09245594599633,None,73.09245594599633,None,left,1,1.349715775999357,73.09245594599633,None,,,,,,,,,,,,,,,,,,,,,,,,,,,,,,,,,,,,,,,,,,3,26,m,2021_Apr_09_1744,ldt_en_hi,2021.1.3,1308.2813157965136,
,,,,fury,beginner,right,2,,,,,,,,,,,,,0,9,9,32,,,,,,,,,,,,,,,,,,,,,,,,,None,76.44543893399532,None,,,,,,,74.94776502800232,None,74.94776502800232,None,right,1,1.4961055369931273,74.94776502800232,None,,,,,,,,,,,,,,,,,,,,,,,,,,,,,,,,,,,,,,,,,,3,26,m,2021_Apr_09_1744,ldt_en_hi,2021.1.3,1308.2813157965136,
,,,,region,blame,right,2,,,,,,,,,,,,,0,10,10,35,,,,,,,,,,,,,,,,,,,,,,,,,None,77.93479656000272,None,,,,,,,76.94936265599972,None,76.94936265599972,None,right,1,0.9838913599960506,76.94936265599972,None,,,,,,,,,,,,,,,,,,,,,,,,,,,,,,,,,,,,,,,,,,3,26,m,2021_Apr_09_1744,ldt_en_hi,2021.1.3,1308.2813157965136,
,,,,contract,bar,right,2,,,,,,,,,,,,,0,11,11,27,,,,,,,,,,,,,,,,,,,,,,,,,None,79.35667823800759,None,,,,,,,78.43854905699845,None,78.43854905699845,None,right,1,0.916594301990699,78.43854905699845,None,,,,,,,,,,,,,,,,,,,,,,,,,,,,,,,,,,,,,,,,,,3,26,m,2021_Apr_09_1744,ldt_en_hi,2021.1.3,1308.2813157965136,
,,,,bow,arrow,right,1,,,,,,,,,,,,,0,12,12,5,,,,,,,,,,,,,,,,,,,,,,,,,None,80.71828621299937,None,,,,,,,79.86027091600408,None,79.86027091600408,None,right,1,0.856488249002723,79.86027091600408,None,,,,,,,,,,,,,,,,,,,,,,,,,,,,,,,,,,,,,,,,,,3,26,m,2021_Apr_09_1744,ldt_en_hi,2021.1.3,1308.2813157965136,
,,,,mabapine,environment,left,4,,,,,,,,,,,,,0,13,13,77,,,,,,,,,,,,,,,,,,,,,,,,,None,82.65681149999727,None,,,,,,,81.22213934699539,None,81.22213934699539,None,left,1,1.4331481539993547,81.22213934699539,None,,,,,,,,,,,,,,,,,,,,,,,,,,,,,,,,,,,,,,,,,,3,26,m,2021_Apr_09_1744,ldt_en_hi,2021.1.3,1308.2813157965136,
,,,,poldcemps,uccipt,left,3,,,,,,,,,,,,,0,14,14,40,,,,,,,,,,,,,,,,,,,,,,,,,None,84.29108300199732,None,,,,,,,83.16050548599742,None,83.16050548599742,None,left,1,1.129033093995531,83.16050548599742,None,,,,,,,,,,,,,,,,,,,,,,,,,,,,,,,,,,,,,,,,,,3,26,m,2021_Apr_09_1744,ldt_en_hi,2021.1.3,1308.2813157965136,
,,,,udvirb,prew,left,3,,,,,,,,,,,,,0,15,15,47,,,,,,,,,,,,,,,,,,,,,,,,,None,85.75979174399981,None,,,,,,,84.7953203740035,None,84.7953203740035,None,left,1,0.9629088119982043,84.7953203740035,None,,,,,,,,,,,,,,,,,,,,,,,,,,,,,,,,,,,,,,,,,,3,26,m,2021_Apr_09_1744,ldt_en_hi,2021.1.3,1308.2813157965136,
,,,,quantyta,berid,left,3,,,,,,,,,,,,,0,16,16,52,,,,,,,,,,,,,,,,,,,,,,,,,None,87.53707048900833,None,,,,,,,86.26371301000472,None,86.26371301000472,None,left,1,1.2717668769910233,86.26371301000472,None,,,,,,,,,,,,,,,,,,,,,,,,,,,,,,,,,,,,,,,,,,3,26,m,2021_Apr_09_1744,ldt_en_hi,2021.1.3,1308.2813157965136,
,,,,mgstachi,forest,left,4,,,,,,,,,,,,,0,17,17,74,,,,,,,,,,,,,,,,,,,,,,,,,None,89.21776036400115,None,,,,,,,88.04138769400015,None,88.04138769400015,None,left,1,1.1748446950077778,88.04138769400015,None,,,,,,,,,,,,,,,,,,,,,,,,,,,,,,,,,,,,,,,,,,3,26,m,2021_Apr_09_1744,ldt_en_hi,2021.1.3,1308.2813157965136,
,,,,ash,blue,right,2,,,,,,,,,,,,,0,18,18,38,,,,,,,,,,,,,,,,,,,,,,,,,None,90.66397978299938,None,,,,,,,89.72123754399945,None,89.72123754399945,None,right,1,0.9408376050123479,89.72123754399945,None,,,,,,,,,,,,,,,,,,,,,,,,,,,,,,,,,,,,,,,,,,3,26,m,2021_Apr_09_1744,ldt_en_hi,2021.1.3,1308.2813157965136,
,,,,snuggle,atnton,left,5,,,,,,,,,,,,,0,19,19,56,,,,,,,,,,,,,,,,,,,,,,,,,None,92.73621415499656,None,,,,,,,91.16944803200022,None,91.16944803200022,None,left,1,1.5651989339967258,91.16944803200022,None,,,,,,,,,,,,,,,,,,,,,,,,,,,,,,,,,,,,,,,,,,3,26,m,2021_Apr_09_1744,ldt_en_hi,2021.1.3,1308.2813157965136,
,,,,blackboard,chalk,right,1,,,,,,,,,,,,,0,20,20,16,,,,,,,,,,,,,,,,,,,,,,,,,None,94.23541076900437,None,,,,,,,93.23985423799604,None,93.23985423799604,None,right,1,0.993991808994906,93.23985423799604,None,,,,,,,,,,,,,,,,,,,,,,,,,,,,,,,,,,,,,,,,,,3,26,m,2021_Apr_09_1744,ldt_en_hi,2021.1.3,1308.2813157965136,
,,,,harmful,cownr,left,5,,,,,,,,,,,,,0,21,21,61,,,,,,,,,,,,,,,,,,,,,,,,,None,96.26074048700684,None,,,,,,,94.73960861800879,None,94.73960861800879,None,left,1,1.5195987990009598,94.73960861800879,None,,,,,,,,,,,,,,,,,,,,,,,,,,,,,,,,,,,,,,,,,,3,26,m,2021_Apr_09_1744,ldt_en_hi,2021.1.3,1308.2813157965136,
,,,,entertain,begin,right,2,,,,,,,,,,,,,0,22,22,31,,,,,,,,,,,,,,,,,,,,,,,,,None,97.90186634499696,None,,,,,,,96.76429328099766,None,96.76429328099766,None,right,1,1.1360021360014798,96.76429328099766,None,,,,,,,,,,,,,,,,,,,,,,,,,,,,,,,,,,,,,,,,,,3,26,m,2021_Apr_09_1744,ldt_en_hi,2021.1.3,1308.2813157965136,
,,,,frugtry,cheat,left,4,,,,,,,,,,,,,0,23,23,70,,,,,,,,,,,,,,,,,,,,,,,,,None,99.62084196400247,None,,,,,,,98.40544943499845,None,98.40544943499845,None,left,1,1.2138407500024186,98.40544943499845,None,,,,,,,,,,,,,,,,,,,,,,,,,,,,,,,,,,,,,,,,,,3,26,m,2021_Apr_09_1744,ldt_en_hi,2021.1.3,1308.2813157965136,
,,,,perform,average,right,2,,,,,,,,,,,,,0,24,24,23,,,,,,,,,,,,,,,,,,,,,,,,,None,101.15034828300122,None,,,,,,,100.12481195799774,None,100.12481195799774,None,right,1,1.0239766510057962,100.12481195799774,None,,,,,,,,,,,,,,,,,,,,,,,,,,,,,,,,,,,,,,,,,,3,26,m,2021_Apr_09_1744,ldt_en_hi,2021.1.3,1308.2813157965136,
,,,,cowtnet,freedom,left,4,,,,,,,,,,,,,0,25,25,69,,,,,,,,,,,,,,,,,,,,,,,,,None,102.99639384599868,None,,,,,,,101.65402326399635,None,101.65402326399635,None,left,1,1.3408132499898784,101.65402326399635,None,,,,,,,,,,,,,,,,,,,,,,,,,,,,,,,,,,,,,,,,,,3,26,m,2021_Apr_09_1744,ldt_en_hi,2021.1.3,1308.2813157965136,
,,,,tricycle,bicycle,right,1,,,,,,,,,,,,,0,26,26,9,,,,,,,,,,,,,,,,,,,,,,,,,None,104.95694742699561,None,,,,,,,103.50020767000387,None,103.50020767000387,None,right,1,1.4551906349952333,103.50020767000387,None,,,,,,,,,,,,,,,,,,,,,,,,,,,,,,,,,,,,,,,,,,3,26,m,2021_Apr_09_1744,ldt_en_hi,2021.1.3,1308.2813157965136,
,,,,buws,decide,left,4,,,,,,,,,,,,,0,27,27,73,,,,,,,,,,,,,,,,,,,,,,,,,None,107.44503744400572,None,,,,,,,105.46079524699599,None,105.46079524699599,None,left,1,1.982682392001152,105.46079524699599,None,,,,,,,,,,,,,,,,,,,,,,,,,,,,,,,,,,,,,,,,,,3,26,m,2021_Apr_09_1744,ldt_en_hi,2021.1.3,1308.2813157965136,
,,,,octopus,arms,right,1,,,,,,,,,,,,,0,28,28,4,,,,,,,,,,,,,,,,,,,,,,,,,None,109.05860878199746,None,,,,,,,107.94869796700368,None,107.94869796700368,None,right,1,1.1083397140027955,107.94869796700368,None,,,,,,,,,,,,,,,,,,,,,,,,,,,,,,,,,,,,,,,,,,3,26,m,2021_Apr_09_1744,ldt_en_hi,2021.1.3,1308.2813157965136,
,,,,sister,brother,right,1,,,,,,,,,,,,,0,29,29,13,,,,,,,,,,,,,,,,,,,,,,,,,None,110.29969796600926,None,,,,,,,109.56222341800458,None,109.56222341800458,None,right,1,0.7359012009983417,109.56222341800458,None,,,,,,,,,,,,,,,,,,,,,,,,,,,,,,,,,,,,,,,,,,3,26,m,2021_Apr_09_1744,ldt_en_hi,2021.1.3,1308.2813157965136,
,,,,contreqt,bcer,left,3,,,,,,,,,,,,,0,30,30,49,,,,,,,,,,,,,,,,,,,,,,,,,None,111.58884498200496,None,,,,,,,110.80368715799705,None,110.80368715799705,None,left,1,0.783614273997955,110.80368715799705,None,,,,,,,,,,,,,,,,,,,,,,,,,,,,,,,,,,,,,,,,,,3,26,m,2021_Apr_09_1744,ldt_en_hi,2021.1.3,1308.2813157965136,
,,,,caklqblower,fashion,left,4,,,,,,,,,,,,,0,31,31,79,,,,,,,,,,,,,,,,,,,,,,,,,None,113.21125510999991,None,,,,,,,112.09260294599517,None,112.09260294599517,None,left,1,1.117079162999289,112.09260294599517,None,,,,,,,,,,,,,,,,,,,,,,,,,,,,,,,,,,,,,,,,,,3,26,m,2021_Apr_09_1744,ldt_en_hi,2021.1.3,1308.2813157965136,
,,,,corpse,bigan,left,5,,,,,,,,,,,,,0,32,32,64,,,,,,,,,,,,,,,,,,,,,,,,,None,115.730944379,None,,,,,,,113.71550026600016,None,113.71550026600016,None,left,1,2.013845979992766,113.71550026600016,None,,,,,,,,,,,,,,,,,,,,,,,,,,,,,,,,,,,,,,,,,,3,26,m,2021_Apr_09_1744,ldt_en_hi,2021.1.3,1308.2813157965136,
,,,,kitchen,cook,right,1,,,,,,,,,,,,,0,33,33,17,,,,,,,,,,,,,,,,,,,,,,,,,None,116.94159357799799,None,,,,,,,116.23447306800517,None,116.23447306800517,None,right,1,0.7055201259936439,116.23447306800517,None,,,,,,,,,,,,,,,,,,,,,,,,,,,,,,,,,,,,,,,,,,3,26,m,2021_Apr_09_1744,ldt_en_hi,2021.1.3,1308.2813157965136,
,,,,disagreement,blanket,right,2,,,,,,,,,,,,,0,34,34,36,,,,,,,,,,,,,,,,,,,,,,,,,None,118.59207950699783,None,,,,,,,117.44579314200382,None,117.44579314200382,None,right,1,1.1447255170060089,117.44579314200382,None,,,,,,,,,,,,,,,,,,,,,,,,,,,,,,,,,,,,,,,,,,3,26,m,2021_Apr_09_1744,ldt_en_hi,2021.1.3,1308.2813157965136,
,,,,seem,bitch,right,2,,,,,,,,,,,,,0,35,35,34,,,,,,,,,,,,,,,,,,,,,,,,,None,120.02848843000538,None,,,,,,,119.09576224400371,None,119.09576224400371,None,right,1,0.9311434690025635,119.09576224400371,None,,,,,,,,,,,,,,,,,,,,,,,,,,,,,,,,,,,,,,,,,,3,26,m,2021_Apr_09_1744,ldt_en_hi,2021.1.3,1308.2813157965136,
,,,,suggest,ballet,right,2,,,,,,,,,,,,,0,36,36,26,,,,,,,,,,,,,,,,,,,,,,,,,None,121.56072443400626,None,,,,,,,120.53263656199852,None,120.53263656199852,None,right,1,1.026531678988249,120.53263656199852,None,,,,,,,,,,,,,,,,,,,,,,,,,,,,,,,,,,,,,,,,,,3,26,m,2021_Apr_09_1744,ldt_en_hi,2021.1.3,1308.2813157965136,
,,,,subtraction,addition,right,1,,,,,,,,,,,,,0,37,37,1,,,,,,,,,,,,,,,,,,,,,,,,,None,123.02678008799558,None,,,,,,,122.06497046799632,None,122.06497046799632,None,right,1,0.960232769997674,122.06497046799632,None,,,,,,,,,,,,,,,,,,,,,,,,,,,,,,,,,,,,,,,,,,3,26,m,2021_Apr_09_1744,ldt_en_hi,2021.1.3,1308.2813157965136,
,,,,cauliflower,broccoli,right,1,,,,,,,,,,,,,0,38,38,12,,,,,,,,,,,,,,,,,,,,,,,,,None,124.97822442700271,None,,,,,,,123.53058649400191,None,123.53058649400191,None,right,1,1.4460650639957748,123.53058649400191,None,,,,,,,,,,,,,,,,,,,,,,,,,,,,,,,,,,,,,,,,,,3,26,m,2021_Apr_09_1744,ldt_en_hi,2021.1.3,1308.2813157965136,
,,,,capmpiwity,nney,left,3,,,,,,,,,,,,,0,39,39,44,,,,,,,,,,,,,,,,,,,,,,,,,None,126.32832208300533,None,,,,,,,125.48251954300213,None,125.48251954300213,None,left,1,0.8442057439970085,125.48251954300213,None,,,,,,,,,,,,,,,,,,,,,,,,,,,,,,,,,,,,,,,,,,3,26,m,2021_Apr_09_1744,ldt_en_hi,2021.1.3,1308.2813157965136,
,,,,explanation,answer,right,1,,,,,,,,,,,,,0,40,40,3,,,,,,,,,,,,,,,,,,,,,,,,,None,127.61110937400372,None,,,,,,,126.83202864200575,None,126.83202864200575,None,right,1,0.7775180979951983,126.83202864200575,None,,,,,,,,,,,,,,,,,,,,,,,,,,,,,,,,,,,,,,,,,,3,26,m,2021_Apr_09_1744,ldt_en_hi,2021.1.3,1308.2813157965136,
,,,,disbhvmeve,destroy,left,4,,,,,,,,,,,,,0,41,41,76,,,,,,,,,,,,,,,,,,,,,,,,,None,129.4281052849983,None,,,,,,,128.1146881260065,None,128.1146881260065,None,left,1,1.3115857270022389,128.1146881260065,None,,,,,,,,,,,,,,,,,,,,,,,,,,,,,,,,,,,,,,,,,,3,26,m,2021_Apr_09_1744,ldt_en_hi,2021.1.3,1308.2813157965136,
,,,,awareness,base,right,2,,,,,,,,,,,,,0,42,42,28,,,,,,,,,,,,,,,,,,,,,,,,,None,131.23727063099795,None,,,,,,,129.93225284200162,None,129.93225284200162,None,right,1,1.3034588570008054,129.93225284200162,None,,,,,,,,,,,,,,,,,,,,,,,,,,,,,,,,,,,,,,,,,,3,26,m,2021_Apr_09_1744,ldt_en_hi,2021.1.3,1308.2813157965136,
,,,,antidote,averake,left,5,,,,,,,,,,,,,0,43,43,58,,,,,,,,,,,,,,,,,,,,,,,,,None,134.07248735500616,None,,,,,,,131.74146577400097,None,131.74146577400097,None,left,1,2.329423915987718,131.74146577400097,None,,,,,,,,,,,,,,,,,,,,,,,,,,,,,,,,,,,,,,,,,,3,26,m,2021_Apr_09_1744,ldt_en_hi,2021.1.3,1308.2813157965136,
,,,,ltbster,lecter,left,3,,,,,,,,,,,,,0,44,44,41,,,,,,,,,,,,,,,,,,,,,,,,,None,135.58548049900855,None,,,,,,,134.5765738659975,None,134.5765738659975,None,left,1,1.0073510279908078,134.5765738659975,None,,,,,,,,,,,,,,,,,,,,,,,,,,,,,,,,,,,,,,,,,,3,26,m,2021_Apr_09_1744,ldt_en_hi,2021.1.3,1308.2813157965136,
,,,,capability,attic,right,2,,,,,,,,,,,,,0,45,45,22,,,,,,,,,,,,,,,,,,,,,,,,,None,137.27579719400092,None,,,,,,,136.08931055299763,None,136.08931055299763,None,right,1,1.1849199940043036,136.08931055299763,None,,,,,,,,,,,,,,,,,,,,,,,,,,,,,,,,,,,,,,,,,,3,26,m,2021_Apr_09_1744,ldt_en_hi,2021.1.3,1308.2813157965136,
,,,,magazine,book,right,1,,,,,,,,,,,,,0,46,46,10,,,,,,,,,,,,,,,,,,,,,,,,,None,138.55360696499702,None,,,,,,,137.78008727899578,None,137.78008727899578,None,right,1,0.771937084995443,137.78008727899578,None,,,,,,,,,,,,,,,,,,,,,,,,,,,,,,,,,,,,,,,,,,3,26,m,2021_Apr_09_1744,ldt_en_hi,2021.1.3,1308.2813157965136,
,,,,ballet,fgor,left,5,,,,,,,,,,,,,0,47,47,60,,,,,,,,,,,,,,,,,,,,,,,,,None,139.7240489830001,None,,,,,,,139.05749928500154,None,139.05749928500154,None,left,1,0.6649663189891726,139.05749928500154,None,,,,,,,,,,,,,,,,,,,,,,,,,,,,,,,,,,,,,,,,,,3,26,m,2021_Apr_09_1744,ldt_en_hi,2021.1.3,1308.2813157965136,
,,,,mustache,beard,right,1,,,,,,,,,,,,,0,48,48,6,,,,,,,,,,,,,,,,,,,,,,,,,None,141.06080048500735,None,,,,,,,140.22791094900458,None,140.22791094900458,None,right,1,0.8313160440011416,140.22791094900458,None,,,,,,,,,,,,,,,,,,,,,,,,,,,,,,,,,,,,,,,,,,3,26,m,2021_Apr_09_1744,ldt_en_hi,2021.1.3,1308.2813157965136,
,,,,cricket,blow,right,2,,,,,,,,,,,,,0,49,49,37,,,,,,,,,,,,,,,,,,,,,,,,,None,142.2071201200015,None,,,,,,,141.56458083700272,None,141.56458083700272,None,right,1,0.6409479770081816,141.56458083700272,None,,,,,,,,,,,,,,,,,,,,,,,,,,,,,,,,,,,,,,,,,,3,26,m,2021_Apr_09_1744,ldt_en_hi,2021.1.3,1308.2813157965136,
,,,,invent,ceok,left,5,,,,,,,,,,,,,0,50,50,53,,,,,,,,,,,,,,,,,,,,,,,,,None,143.46997970799566,None,,,,,,,142.7114080350002,None,142.7114080350002,None,left,1,0.7569926889991621,142.7114080350002,None,,,,,,,,,,,,,,,,,,,,,,,,,,,,,,,,,,,,,,,,,,3,26,m,2021_Apr_09_1744,ldt_en_hi,2021.1.3,1308.2813157965136,
,,,,inventor,leab,left,5,,,,,,,,,,,,,0,51,51,54,,,,,,,,,,,,,,,,,,,,,,,,,None,144.72023207500752,None,,,,,,,143.9738406760007,None,143.9738406760007,None,left,1,0.7448344449949218,143.9738406760007,None,,,,,,,,,,,,,,,,,,,,,,,,,,,,,,,,,,,,,,,,,,3,26,m,2021_Apr_09_1744,ldt_en_hi,2021.1.3,1308.2813157965136,
,,,,suggeyf,biurd,left,3,,,,,,,,,,,,,0,52,52,48,,,,,,,,,,,,,,,,,,,,,,,,,None,146.0470301949972,None,,,,,,,145.22428789900732,None,145.22428789900732,None,left,1,0.8211797080002725,145.22428789900732,None,,,,,,,,,,,,,,,,,,,,,,,,,,,,,,,,,,,,,,,,,,3,26,m,2021_Apr_09_1744,ldt_en_hi,2021.1.3,1308.2813157965136,
,,,,adverb,backpack,right,2,,,,,,,,,,,,,0,53,53,25,,,,,,,,,,,,,,,,,,,,,,,,,None,147.6219655820023,None,,,,,,,146.55092643499665,None,146.55092643499665,None,right,1,1.0694751200062456,146.55092643499665,None,,,,,,,,,,,,,,,,,,,,,,,,,,,,,,,,,,,,,,,,,,3,26,m,2021_Apr_09_1744,ldt_en_hi,2021.1.3,1308.2813157965136,
,,,,inquire,blush,right,2,,,,,,,,,,,,,0,54,54,39,,,,,,,,,,,,,,,,,,,,,,,,,None,148.8856289569958,None,,,,,,,148.12592005400802,None,148.12592005400802,None,right,1,0.7581324909988325,148.12592005400802,None,,,,,,,,,,,,,,,,,,,,,,,,,,,,,,,,,,,,,,,,,,3,26,m,2021_Apr_09_1744,ldt_en_hi,2021.1.3,1308.2813157965136,
,,,,data,beaufifsl,left,5,,,,,,,,,,,,,0,55,55,63,,,,,,,,,,,,,,,,,,,,,,,,,None,150.17735008499585,None,,,,,,,149.38934456800052,None,149.38934456800052,None,right,0,0.7864290930010611,149.38934456800052,None,,,,,,,,,,,,,,,,,,,,,,,,,,,,,,,,,,,,,,,,,,3,26,m,2021_Apr_09_1744,ldt_en_hi,2021.1.3,1308.2813157965136,
,,,,awbxenems,belvem,left,3,,,,,,,,,,,,,0,56,56,50,,,,,,,,,,,,,,,,,,,,,,,,,None,151.40407597299782,None,,,,,,,150.68117417600297,None,150.68117417600297,None,left,1,0.7213152240001364,150.68117417600297,None,,,,,,,,,,,,,,,,,,,,,,,,,,,,,,,,,,,,,,,,,,3,26,m,2021_Apr_09_1744,ldt_en_hi,2021.1.3,1308.2813157965136,
,,,,continent,africa,right,1,,,,,,,,,,,,,0,57,57,2,,,,,,,,,,,,,,,,,,,,,,,,,None,152.6662352209969,None,,,,,,,151.90800365000905,None,151.90800365000905,None,right,1,0.7566178190027131,151.90800365000905,None,,,,,,,,,,,,,,,,,,,,,,,,,,,,,,,,,,,,,,,,,,3,26,m,2021_Apr_09_1744,ldt_en_hi,2021.1.3,1308.2813157965136,
,,,,perigrm,unswir,left,3,,,,,,,,,,,,,0,58,58,45,,,,,,,,,,,,,,,,,,,,,,,,,None,154.33022729300137,None,,,,,,,153.17004340700805,None,153.17004340700805,None,left,1,1.1586095419916091,153.17004340700805,None,,,,,,,,,,,,,,,,,,,,,,,,,,,,,,,,,,,,,,,,,,3,26,m,2021_Apr_09_1744,ldt_en_hi,2021.1.3,1308.2813157965136,
,,,,disown,atom,right,2,,,,,,,,,,,,,0,59,59,21,,,,,,,,,,,,,,,,,,,,,,,,,None,155.97028004600725,None,,,,,,,154.83439575899683,None,154.83439575899683,None,right,1,1.1343017440085532,154.83439575899683,None,,,,,,,,,,,,,,,,,,,,,,,,,,,,,,,,,,,,,,,,,,3,26,m,2021_Apr_09_1744,ldt_en_hi,2021.1.3,1308.2813157965136,
,,,,dasewn,ufraca,left,3,,,,,,,,,,,,,0,60,60,43,,,,,,,,,,,,,,,,,,,,,,,,,None,157.35778985499928,None,,,,,,,156.47404917300446,None,156.47404917300446,None,left,1,0.8821567459963262,156.47404917300446,None,,,,,,,,,,,,,,,,,,,,,,,,,,,,,,,,,,,,,,,,,,3,26,m,2021_Apr_09_1744,ldt_en_hi,2021.1.3,1308.2813157965136,
,,,,tumor,cancer,right,1,,,,,,,,,,,,,0,61,61,14,,,,,,,,,,,,,,,,,,,,,,,,,None,158.68923584099684,None,,,,,,,157.863605792998,None,157.863605792998,None,right,1,0.8240654179971898,157.863605792998,None,,,,,,,,,,,,,,,,,,,,,,,,,,,,,,,,,,,,,,,,,,3,26,m,2021_Apr_09_1744,ldt_en_hi,2021.1.3,1308.2813157965136,
,,,,ocbohus,bitch,left,4,,,,,,,,,,,,,0,62,62,72,,,,,,,,,,,,,,,,,,,,,,,,,None,160.54809530900093,None,,,,,,,159.1933497209975,None,159.1933497209975,None,left,1,1.3531380380009068,159.1933497209975,None,,,,,,,,,,,,,,,,,,,,,,,,,,,,,,,,,,,,,,,,,,3,26,m,2021_Apr_09_1744,ldt_en_hi,2021.1.3,1308.2813157965136,
,,,,mute,bygknner,left,5,,,,,,,,,,,,,0,63,63,65,,,,,,,,,,,,,,,,,,,,,,,,,None,162.11593768499733,None,,,,,,,161.05232789600268,None,161.05232789600268,None,left,1,1.0620097599894507,161.05232789600268,None,,,,,,,,,,,,,,,,,,,,,,,,,,,,,,,,,,,,,,,,,,3,26,m,2021_Apr_09_1744,ldt_en_hi,2021.1.3,1308.2813157965136,
,,,,disallow,beat,right,2,,,,,,,,,,,,,0,64,64,29,,,,,,,,,,,,,,,,,,,,,,,,,None,163.4636521939974,None,,,,,,,162.61990602800506,None,162.61990602800506,None,right,1,0.8421388249989832,162.61990602800506,None,,,,,,,,,,,,,,,,,,,,,,,,,,,,,,,,,,,,,,,,,,3,26,m,2021_Apr_09_1744,ldt_en_hi,2021.1.3,1308.2813157965136,
,,,,riject,farm,left,4,,,,,,,,,,,,,0,65,65,66,,,,,,,,,,,,,,,,,,,,,,,,,None,165.63043494400335,None,,,,,,,163.97559408500092,None,163.97559408500092,None,left,1,1.6532839520077687,163.97559408500092,None,,,,,,,,,,,,,,,,,,,,,,,,,,,,,,,,,,,,,,,,,,3,26,m,2021_Apr_09_1744,ldt_en_hi,2021.1.3,1308.2813157965136,
,,,,actress,actor,right,1,,,,,,,,,,,,,0,66,66,0,,,,,,,,,,,,,,,,,,,,,,,,,None,166.86960539099528,None,,,,,,,166.13472810400708,None,166.13472810400708,None,right,1,0.7332950170093682,166.13472810400708,None,,,,,,,,,,,,,,,,,,,,,,,,,,,,,,,,,,,,,,,,,,3,26,m,2021_Apr_09_1744,ldt_en_hi,2021.1.3,1308.2813157965136,
,,,,adorable,bckpwck,left,5,,,,,,,,,,,,,0,67,67,59,,,,,,,,,,,,,,,,,,,,,,,,,None,168.39137999199738,None,,,,,,,167.3739908090065,None,167.3739908090065,None,left,1,1.0157598110090476,167.3739908090065,None,,,,,,,,,,,,,,,,,,,,,,,,,,,,,,,,,,,,,,,,,,3,26,m,2021_Apr_09_1744,ldt_en_hi,2021.1.3,1308.2813157965136,
,,,,stpactin,fear,left,4,,,,,,,,,,,,,0,68,68,68,,,,,,,,,,,,,,,,,,,,,,,,,None,169.94406992199947,None,,,,,,,168.89560048500425,None,168.89560048500425,None,left,1,1.0468625079956837,168.89560048500425,None,,,,,,,,,,,,,,,,,,,,,,,,,,,,,,,,,,,,,,,,,,3,26,m,2021_Apr_09_1744,ldt_en_hi,2021.1.3,1308.2813157965136,
,,,,anteater,belt,right,2,,,,,,,,,,,,,0,69,69,33,,,,,,,,,,,,,,,,,,,,,,,,,None,171.67442140600178,None,,,,,,,170.44835921999766,None,170.44835921999766,None,left,0,1.2244826850073878,170.44835921999766,None,,,,,,,,,,,,,,,,,,,,,,,,,,,,,,,,,,,,,,,,,,3,26,m,2021_Apr_09_1744,ldt_en_hi,2021.1.3,1308.2813157965136,
,,,,exdlavstion,cloth,left,4,,,,,,,,,,,,,0,70,70,71,,,,,,,,,,,,,,,,,,,,,,,,,None,173.7069441700005,None,,,,,,,172.17824993899558,None,172.17824993899558,None,left,1,1.5270608959981473,172.17824993899558,None,,,,,,,,,,,,,,,,,,,,,,,,,,,,,,,,,,,,,,,,,,3,26,m,2021_Apr_09_1744,ldt_en_hi,2021.1.3,1308.2813157965136,
,,,,busg,data,left,4,,,,,,,,,,,,,0,71,71,78,,,,,,,,,,,,,,,,,,,,,,,,,None,175.24769851799647,None,,,,,,,174.21069889199862,None,174.21069889199862,None,left,1,1.0353827140061185,174.21069889199862,None,,,,,,,,,,,,,,,,,,,,,,,,,,,,,,,,,,,,,,,,,,3,26,m,2021_Apr_09_1744,ldt_en_hi,2021.1.3,1308.2813157965136,
,,,,rug,carpet,right,1,,,,,,,,,,,,,0,72,72,15,,,,,,,,,,,,,,,,,,,,,,,,,None,176.8380681599956,None,,,,,,,175.7520644670003,None,175.7520644670003,None,right,1,1.0843825369956903,175.7520644670003,None,,,,,,,,,,,,,,,,,,,,,,,,,,,,,,,,,,,,,,,,,,3,26,m,2021_Apr_09_1744,ldt_en_hi,2021.1.3,1308.2813157965136,
,,,,saucer,uttac,left,5,,,,,,,,,,,,,0,73,73,57,,,,,,,,,,,,,,,,,,,,,,,,,None,178.09394636000798,None,,,,,,,177.3422615120071,None,177.3422615120071,None,left,1,0.7501031650026562,177.3422615120071,None,,,,,,,,,,,,,,,,,,,,,,,,,,,,,,,,,,,,,,,,,,3,26,m,2021_Apr_09_1744,ldt_en_hi,2021.1.3,1308.2813157965136,
,,,,mug,beer,right,1,,,,,,,,,,,,,0,74,74,7,,,,,,,,,,,,,,,,,,,,,,,,,None,179.34593880199827,None,,,,,,,178.59812913600763,None,178.59812913600763,None,right,1,0.7462106029997813,178.59812913600763,None,,,,,,,,,,,,,,,,,,,,,,,,,,,,,,,,,,,,,,,,,,3,26,m,2021_Apr_09_1744,ldt_en_hi,2021.1.3,1308.2813157965136,
,,,,uneven,dival,left,5,,,,,,,,,,,,,0,75,75,55,,,,,,,,,,,,,,,,,,,,,,,,,None,181.79605654299667,None,,,,,,,179.8501464620058,None,179.8501464620058,None,left,1,1.9443086859973846,179.8501464620058,None,,,,,,,,,,,,,,,,,,,,,,,,,,,,,,,,,,,,,,,,,,3,26,m,2021_Apr_09_1744,ldt_en_hi,2021.1.3,1308.2813157965136,
,,,,actor,axe,right,2,,,,,,,,,,,,,0,76,76,24,,,,,,,,,,,,,,,,,,,,,,,,,None,183.0184905990027,None,,,,,,,182.30009856300603,None,182.30009856300603,None,right,1,0.7168085500015877,182.30009856300603,None,,,,,,,,,,,,,,,,,,,,,,,,,,,,,,,,,,,,,,,,,,3,26,m,2021_Apr_09_1744,ldt_en_hi,2021.1.3,1308.2813157965136,
,,,,disbelieve,believe,right,1,,,,,,,,,,,,,0,77,77,8,,,,,,,,,,,,,,,,,,,,,,,,,None,184.32402423500025,None,,,,,,,183.52265544699912,None,183.52265544699912,None,right,1,0.7997673560021212,183.52265544699912,None,,,,,,,,,,,,,,,,,,,,,,,,,,,,,,,,,,,,,,,,,,3,26,m,2021_Apr_09_1744,ldt_en_hi,2021.1.3,1308.2813157965136,
,,,,displfow,pcycce,left,3,,,,,,,,,,,,,0,78,78,51,,,,,,,,,,,,,,,,,,,,,,,,,None,185.48182480799733,None,,,,,,,184.8283470000024,None,184.8283470000024,None,left,1,0.6518887959973654,184.8283470000024,None,,,,,,,,,,,,,,,,,,,,,,,,,,,,,,,,,,,,,,,,,,3,26,m,2021_Apr_09_1744,ldt_en_hi,2021.1.3,1308.2813157965136,
,,,,valuable,devil,right,2,,,,,,,,,,,,,0,79,79,20,,,,,,,,,,,,,,,,,,,,,,,,,None,186.73795768700074,None,,,,,,,185.98558170199976,None,185.98558170199976,None,right,1,0.7507710610079812,185.98558170199976,None,,,,,,,,,,,,,,,,,,,,,,,,,,,,,,,,,,,,,,,,,,3,26,m,2021_Apr_09_1744,ldt_en_hi,2021.1.3,1308.2813157965136,
,,,,harmful,cownr,left,5,,,,,,,,,,,,,1,0,80,61,,,,,,,,,,,,,,,,,,,,,,,,,None,188.59336747099587,None,,,,,,,187.24192752300587,None,187.24192752300587,None,left,1,1.3498065659950953,187.24192752300587,None,,,,,,,,,,,,,,,,,,,,,,,,,,,,,,,,,,,,,,,,,,3,26,m,2021_Apr_09_1744,ldt_en_hi,2021.1.3,1308.2813157965136,
,,,,continent,africa,right,1,,,,,,,,,,,,,1,1,81,2,,,,,,,,,,,,,,,,,,,,,,,,,None,189.89705170500383,None,,,,,,,189.09722879099718,None,189.09722879099718,None,right,1,0.7982267829938792,189.09722879099718,None,,,,,,,,,,,,,,,,,,,,,,,,,,,,,,,,,,,,,,,,,,3,26,m,2021_Apr_09_1744,ldt_en_hi,2021.1.3,1308.2813157965136,
,,,,uneven,dival,left,5,,,,,,,,,,,,,1,2,82,55,,,,,,,,,,,,,,,,,,,,,,,,,None,191.07550166700094,None,,,,,,,190.40147343400167,None,190.40147343400167,None,left,1,0.6723853790026624,190.40147343400167,None,,,,,,,,,,,,,,,,,,,,,,,,,,,,,,,,,,,,,,,,,,3,26,m,2021_Apr_09_1744,ldt_en_hi,2021.1.3,1308.2813157965136,
,,,,imhge,eyes,left,4,,,,,,,,,,,,,1,3,83,75,,,,,,,,,,,,,,,,,,,,,,,,,None,192.53766060400812,None,,,,,,,191.57943974000227,None,191.57943974000227,None,left,1,0.9565965889923973,191.57943974000227,None,,,,,,,,,,,,,,,,,,,,,,,,,,,,,,,,,,,,,,,,,,3,26,m,2021_Apr_09_1744,ldt_en_hi,2021.1.3,1308.2813157965136,
,,,,mabapine,environment,left,4,,,,,,,,,,,,,1,4,84,77,,,,,,,,,,,,,,,,,,,,,,,,,None,194.17967409300036,None,,,,,,,193.0413763819961,None,193.0413763819961,None,left,1,1.1366530600062106,193.0413763819961,None,,,,,,,,,,,,,,,,,,,,,,,,,,,,,,,,,,,,,,,,,,3,26,m,2021_Apr_09_1744,ldt_en_hi,2021.1.3,1308.2813157965136,
,,,,mute,bygknner,left,5,,,,,,,,,,,,,1,5,85,65,,,,,,,,,,,,,,,,,,,,,,,,,None,196.01238382799784,None,,,,,,,194.6837797240005,None,194.6837797240005,None,left,1,1.3267636389937252,194.6837797240005,None,,,,,,,,,,,,,,,,,,,,,,,,,,,,,,,,,,,,,,,,,,3,26,m,2021_Apr_09_1744,ldt_en_hi,2021.1.3,1308.2813157965136,
,,,,quantyta,berid,left,3,,,,,,,,,,,,,1,6,86,52,,,,,,,,,,,,,,,,,,,,,,,,,None,197.51835553100682,None,,,,,,,196.51633512800618,None,196.51633512800618,None,left,1,1.0003773659991566,196.51633512800618,None,,,,,,,,,,,,,,,,,,,,,,,,,,,,,,,,,,,,,,,,,,3,26,m,2021_Apr_09_1744,ldt_en_hi,2021.1.3,1308.2813157965136,
,,,,contreqt,bcer,left,3,,,,,,,,,,,,,1,7,87,49,,,,,,,,,,,,,,,,,,,,,,,,,None,198.70179822199862,None,,,,,,,198.02251877299568,None,198.02251877299568,None,left,1,0.6776297989999875,198.02251877299568,None,,,,,,,,,,,,,,,,,,,,,,,,,,,,,,,,,,,,,,,,,,3,26,m,2021_Apr_09_1744,ldt_en_hi,2021.1.3,1308.2813157965136,
,,,,disown,atom,right,2,,,,,,,,,,,,,1,8,88,21,,,,,,,,,,,,,,,,,,,,,,,,,None,200.12961979600368,None,,,,,,,199.20585215800384,None,199.20585215800384,None,right,1,0.9221845599968219,199.20585215800384,None,,,,,,,,,,,,,,,,,,,,,,,,,,,,,,,,,,,,,,,,,,3,26,m,2021_Apr_09_1744,ldt_en_hi,2021.1.3,1308.2813157965136,
,,,,octopus,arms,right,1,,,,,,,,,,,,,1,9,89,4,,,,,,,,,,,,,,,,,,,,,,,,,None,201.58746901899576,None,,,,,,,200.63397053300287,None,200.63397053300287,None,right,1,0.951887543007615,200.63397053300287,None,,,,,,,,,,,,,,,,,,,,,,,,,,,,,,,,,,,,,,,,,,3,26,m,2021_Apr_09_1744,ldt_en_hi,2021.1.3,1308.2813157965136,
,,,,kitchen,cook,right,1,,,,,,,,,,,,,1,10,90,17,,,,,,,,,,,,,,,,,,,,,,,,,None,202.71230512599868,None,,,,,,,202.0915994100069,None,202.0915994100069,None,right,1,0.6190649780037347,202.0915994100069,None,,,,,,,,,,,,,,,,,,,,,,,,,,,,,,,,,,,,,,,,,,3,26,m,2021_Apr_09_1744,ldt_en_hi,2021.1.3,1308.2813157965136,
,,,,antidote,averake,left,5,,,,,,,,,,,,,1,11,91,58,,,,,,,,,,,,,,,,,,,,,,,,,None,204.11356664499908,None,,,,,,,203.21652667599847,None,203.21652667599847,None,right,0,0.8954603070014855,203.21652667599847,None,,,,,,,,,,,,,,,,,,,,,,,,,,,,,,,,,,,,,,,,,,3,26,m,2021_Apr_09_1744,ldt_en_hi,2021.1.3,1308.2813157965136,
,,,,policeman,cop,right,1,,,,,,,,,,,,,1,12,92,18,,,,,,,,,,,,,,,,,,,,,,,,,None,205.41678209000384,None,,,,,,,204.61778129999584,None,204.61778129999584,None,right,1,0.7973694760003127,204.61778129999584,None,,,,,,,,,,,,,,,,,,,,,,,,,,,,,,,,,,,,,,,,,,3,26,m,2021_Apr_09_1744,ldt_en_hi,2021.1.3,1308.2813157965136,
,,,,ltbster,lecter,left,3,,,,,,,,,,,,,1,13,93,41,,,,,,,,,,,,,,,,,,,,,,,,,None,206.93010157400568,None,,,,,,,205.92065547899983,None,205.92065547899983,None,left,1,1.0078030950098764,205.92065547899983,None,,,,,,,,,,,,,,,,,,,,,,,,,,,,,,,,,,,,,,,,,,3,26,m,2021_Apr_09_1744,ldt_en_hi,2021.1.3,1308.2813157965136,
,,,,region,blame,right,2,,,,,,,,,,,,,1,14,94,35,,,,,,,,,,,,,,,,,,,,,,,,,None,209.26600034799776,None,,,,,,,207.43413750499894,None,207.43413750499894,None,right,1,1.8300266989972442,207.43413750499894,None,,,,,,,,,,,,,,,,,,,,,,,,,,,,,,,,,,,,,,,,,,3,26,m,2021_Apr_09_1744,ldt_en_hi,2021.1.3,1308.2813157965136,
,,,,data,beaufifsl,left,5,,,,,,,,,,,,,1,15,95,63,,,,,,,,,,,,,,,,,,,,,,,,,None,210.53875576300197,None,,,,,,,209.769847714997,None,209.769847714997,None,right,0,0.7673129339964362,209.769847714997,None,,,,,,,,,,,,,,,,,,,,,,,,,,,,,,,,,,,,,,,,,,3,26,m,2021_Apr_09_1744,ldt_en_hi,2021.1.3,1308.2813157965136,
,,,,bow,arrow,right,1,,,,,,,,,,,,,1,16,96,5,,,,,,,,,,,,,,,,,,,,,,,,,None,211.98303686500003,None,,,,,,,211.04302666900912,None,211.04302666900912,None,right,1,0.9383794930035947,211.04302666900912,None,,,,,,,,,,,,,,,,,,,,,,,,,,,,,,,,,,,,,,,,,,3,26,m,2021_Apr_09_1744,ldt_en_hi,2021.1.3,1308.2813157965136,
,,,,lobster,crab,right,1,,,,,,,,,,,,,1,17,97,19,,,,,,,,,,,,,,,,,,,,,,,,,None,213.36961986399547,None,,,,,,,212.48672179500863,None,212.48672179500863,None,right,1,0.8812627959996462,212.48672179500863,None,,,,,,,,,,,,,,,,,,,,,,,,,,,,,,,,,,,,,,,,,,3,26,m,2021_Apr_09_1744,ldt_en_hi,2021.1.3,1308.2813157965136,
,,,,ucter,arks,left,3,,,,,,,,,,,,,1,18,98,46,,,,,,,,,,,,,,,,,,,,,,,,,None,214.89190057999804,None,,,,,,,213.87390296600643,None,213.87390296600643,None,left,1,1.0163558180065593,213.87390296600643,None,,,,,,,,,,,,,,,,,,,,,,,,,,,,,,,,,,,,,,,,,,3,26,m,2021_Apr_09_1744,ldt_en_hi,2021.1.3,1308.2813157965136,
,,,,actress,actor,right,1,,,,,,,,,,,,,1,19,99,0,,,,,,,,,,,,,,,,,,,,,,,,,None,216.07840239899815,None,,,,,,,215.395954135005,None,215.395954135005,None,right,1,0.6808077260066057,215.395954135005,None,,,,,,,,,,,,,,,,,,,,,,,,,,,,,,,,,,,,,,,,,,3,26,m,2021_Apr_09_1744,ldt_en_hi,2021.1.3,1308.2813157965136,
,,,,capmpiwity,nney,left,3,,,,,,,,,,,,,1,20,100,44,,,,,,,,,,,,,,,,,,,,,,,,,None,217.2866782390047,None,,,,,,,216.58266548800748,None,216.58266548800748,None,left,1,0.7023977490025572,216.58266548800748,None,,,,,,,,,,,,,,,,,,,,,,,,,,,,,,,,,,,,,,,,,,3,26,m,2021_Apr_09_1744,ldt_en_hi,2021.1.3,1308.2813157965136,
,,,,stpactin,fear,left,4,,,,,,,,,,,,,1,21,101,68,,,,,,,,,,,,,,,,,,,,,,,,,None,218.96703711700684,None,,,,,,,217.7905447929952,None,217.7905447929952,None,left,1,1.1748944930004654,217.7905447929952,None,,,,,,,,,,,,,,,,,,,,,,,,,,,,,,,,,,,,,,,,,,3,26,m,2021_Apr_09_1744,ldt_en_hi,2021.1.3,1308.2813157965136,
,,,,blackboard,chalk,right,1,,,,,,,,,,,,,1,22,102,16,,,,,,,,,,,,,,,,,,,,,,,,,None,220.19884230000025,None,,,,,,,219.47135818800598,None,219.47135818800598,None,right,1,0.7259006220119772,219.47135818800598,None,,,,,,,,,,,,,,,,,,,,,,,,,,,,,,,,,,,,,,,,,,3,26,m,2021_Apr_09_1744,ldt_en_hi,2021.1.3,1308.2813157965136,
,,,,valuable,devil,right,2,,,,,,,,,,,,,1,23,103,20,,,,,,,,,,,,,,,,,,,,,,,,,None,222.29227772900776,None,,,,,,,220.70333715100423,None,220.70333715100423,None,right,1,1.5872964110021712,220.70333715100423,None,,,,,,,,,,,,,,,,,,,,,,,,,,,,,,,,,,,,,,,,,,3,26,m,2021_Apr_09_1744,ldt_en_hi,2021.1.3,1308.2813157965136,
,,,,awareness,base,right,2,,,,,,,,,,,,,1,24,104,28,,,,,,,,,,,,,,,,,,,,,,,,,None,223.75072239000292,None,,,,,,,222.7966329960036,None,222.7966329960036,None,right,1,0.9524872670008335,222.7966329960036,None,,,,,,,,,,,,,,,,,,,,,,,,,,,,,,,,,,,,,,,,,,3,26,m,2021_Apr_09_1744,ldt_en_hi,2021.1.3,1308.2813157965136,
,,,,inquire,blush,right,2,,,,,,,,,,,,,1,25,105,39,,,,,,,,,,,,,,,,,,,,,,,,,None,225.80044087000715,None,,,,,,,224.25477710600535,None,224.25477710600535,None,right,1,1.5440822410018882,224.25477710600535,None,,,,,,,,,,,,,,,,,,,,,,,,,,,,,,,,,,,,,,,,,,3,26,m,2021_Apr_09_1744,ldt_en_hi,2021.1.3,1308.2813157965136,
,,,,poldcemps,uccipt,left,3,,,,,,,,,,,,,1,26,106,40,,,,,,,,,,,,,,,,,,,,,,,,,None,227.04484160299762,None,,,,,,,226.30437147800694,None,226.30437147800694,None,left,1,0.7388343789934879,226.30437147800694,None,,,,,,,,,,,,,,,,,,,,,,,,,,,,,,,,,,,,,,,,,,3,26,m,2021_Apr_09_1744,ldt_en_hi,2021.1.3,1308.2813157965136,
,,,,perigrm,unswir,left,3,,,,,,,,,,,,,1,27,107,45,,,,,,,,,,,,,,,,,,,,,,,,,None,228.26326520899602,None,,,,,,,227.54919681300817,None,227.54919681300817,None,left,1,0.7124139869993087,227.54919681300817,None,,,,,,,,,,,,,,,,,,,,,,,,,,,,,,,,,,,,,,,,,,3,26,m,2021_Apr_09_1744,ldt_en_hi,2021.1.3,1308.2813157965136,
,,,,saucer,uttac,left,5,,,,,,,,,,,,,1,28,108,57,,,,,,,,,,,,,,,,,,,,,,,,,None,229.34275665599853,None,,,,,,,228.76728348599863,None,228.76728348599863,None,left,1,0.5738559249875834,228.76728348599863,None,,,,,,,,,,,,,,,,,,,,,,,,,,,,,,,,,,,,,,,,,,3,26,m,2021_Apr_09_1744,ldt_en_hi,2021.1.3,1308.2813157965136,
,,,,disbelieve,believe,right,1,,,,,,,,,,,,,1,29,109,8,,,,,,,,,,,,,,,,,,,,,,,,,None,230.72786029000417,None,,,,,,,229.84713560600358,None,229.84713560600358,None,right,1,0.8791064079996431,229.84713560600358,None,,,,,,,,,,,,,,,,,,,,,,,,,,,,,,,,,,,,,,,,,,3,26,m,2021_Apr_09_1744,ldt_en_hi,2021.1.3,1308.2813157965136,
,,,,contract,bar,right,2,,,,,,,,,,,,,1,30,110,27,,,,,,,,,,,,,,,,,,,,,,,,,None,232.15243555200868,None,,,,,,,231.23176177599817,None,231.23176177599817,None,right,1,0.9190507150051417,231.23176177599817,None,,,,,,,,,,,,,,,,,,,,,,,,,,,,,,,,,,,,,,,,,,3,26,m,2021_Apr_09_1744,ldt_en_hi,2021.1.3,1308.2813157965136,
,,,,adorable,bckpwck,left,5,,,,,,,,,,,,,1,31,111,59,,,,,,,,,,,,,,,,,,,,,,,,,None,233.42952545700246,None,,,,,,,232.65688706800574,None,232.65688706800574,None,left,1,0.7709444670035737,232.65688706800574,None,,,,,,,,,,,,,,,,,,,,,,,,,,,,,,,,,,,,,,,,,,3,26,m,2021_Apr_09_1744,ldt_en_hi,2021.1.3,1308.2813157965136,
,,,,disallow,beat,right,2,,,,,,,,,,,,,1,32,112,29,,,,,,,,,,,,,,,,,,,,,,,,,None,234.66490134400374,None,,,,,,,233.93348710800637,None,233.93348710800637,None,right,1,0.729802354995627,233.93348710800637,None,,,,,,,,,,,,,,,,,,,,,,,,,,,,,,,,,,,,,,,,,,3,26,m,2021_Apr_09_1744,ldt_en_hi,2021.1.3,1308.2813157965136,
,,,,ash,blue,right,2,,,,,,,,,,,,,1,33,113,38,,,,,,,,,,,,,,,,,,,,,,,,,None,236.04317894300038,None,,,,,,,235.169251120009,None,235.169251120009,None,right,1,0.8722852270002477,235.169251120009,None,,,,,,,,,,,,,,,,,,,,,,,,,,,,,,,,,,,,,,,,,,3,26,m,2021_Apr_09_1744,ldt_en_hi,2021.1.3,1308.2813157965136,
,,,,seem,bitch,right,2,,,,,,,,,,,,,1,34,114,34,,,,,,,,,,,,,,,,,,,,,,,,,None,237.43092247900495,None,,,,,,,236.54770160200133,None,236.54770160200133,None,right,1,0.881587023002794,236.54770160200133,None,,,,,,,,,,,,,,,,,,,,,,,,,,,,,,,,,,,,,,,,,,3,26,m,2021_Apr_09_1744,ldt_en_hi,2021.1.3,1308.2813157965136,
,,,,busg,data,left,4,,,,,,,,,,,,,1,35,115,78,,,,,,,,,,,,,,,,,,,,,,,,,None,238.86661012300465,None,,,,,,,237.93500580999535,None,237.93500580999535,None,left,1,0.9299653029884212,237.93500580999535,None,,,,,,,,,,,,,,,,,,,,,,,,,,,,,,,,,,,,,,,,,,3,26,m,2021_Apr_09_1744,ldt_en_hi,2021.1.3,1308.2813157965136,
,,,,cricket,blow,right,2,,,,,,,,,,,,,1,36,116,37,,,,,,,,,,,,,,,,,,,,,,,,,None,240.34393265499966,None,,,,,,,239.3703898570093,None,239.3703898570093,None,right,1,0.9718916349956999,239.3703898570093,None,,,,,,,,,,,,,,,,,,,,,,,,,,,,,,,,,,,,,,,,,,3,26,m,2021_Apr_09_1744,ldt_en_hi,2021.1.3,1308.2813157965136,
,,,,entertain,begin,right,2,,,,,,,,,,,,,1,37,117,31,,,,,,,,,,,,,,,,,,,,,,,,,None,241.89770953900006,None,,,,,,,240.8481412280089,None,240.8481412280089,None,right,1,1.0479394069989212,240.8481412280089,None,,,,,,,,,,,,,,,,,,,,,,,,,,,,,,,,,,,,,,,,,,3,26,m,2021_Apr_09_1744,ldt_en_hi,2021.1.3,1308.2813157965136,
,,,,subtraction,addition,right,1,,,,,,,,,,,,,1,38,118,1,,,,,,,,,,,,,,,,,,,,,,,,,None,245.39083265500085,None,,,,,,,242.4019187570084,None,242.4019187570084,None,right,1,2.9872377720021177,242.4019187570084,None,,,,,,,,,,,,,,,,,,,,,,,,,,,,,,,,,,,,,,,,,,3,26,m,2021_Apr_09_1744,ldt_en_hi,2021.1.3,1308.2813157965136,
,,,,actor,axe,right,2,,,,,,,,,,,,,1,39,119,24,,,,,,,,,,,,,,,,,,,,,,,,,None,246.720165368999,None,,,,,,,245.89487943700806,None,245.89487943700806,None,right,1,0.8236418110027444,245.89487943700806,None,,,,,,,,,,,,,,,,,,,,,,,,,,,,,,,,,,,,,,,,,,3,26,m,2021_Apr_09_1744,ldt_en_hi,2021.1.3,1308.2813157965136,
,,,,invent,ceok,left,5,,,,,,,,,,,,,1,40,120,53,,,,,,,,,,,,,,,,,,,,,,,,,None,247.8791055150068,None,,,,,,,247.22415495000314,None,247.22415495000314,None,left,1,0.6530875010066666,247.22415495000314,None,,,,,,,,,,,,,,,,,,,,,,,,,,,,,,,,,,,,,,,,,,3,26,m,2021_Apr_09_1744,ldt_en_hi,2021.1.3,1308.2813157965136,
,,,,disbhvmeve,destroy,left,4,,,,,,,,,,,,,1,41,121,76,,,,,,,,,,,,,,,,,,,,,,,,,None,249.60435476900602,None,,,,,,,248.38315209999564,None,248.38315209999564,None,left,1,1.2195535639912123,248.38315209999564,None,,,,,,,,,,,,,,,,,,,,,,,,,,,,,,,,,,,,,,,,,,3,26,m,2021_Apr_09_1744,ldt_en_hi,2021.1.3,1308.2813157965136,
,,,,dasewn,ufraca,left,3,,,,,,,,,,,,,1,42,122,43,,,,,,,,,,,,,,,,,,,,,,,,,None,250.76608045000467,None,,,,,,,250.10874579599476,None,250.10874579599476,None,left,1,0.6557002860063221,250.10874579599476,None,,,,,,,,,,,,,,,,,,,,,,,,,,,,,,,,,,,,,,,,,,3,26,m,2021_Apr_09_1744,ldt_en_hi,2021.1.3,1308.2813157965136,
,,,,quantity,beautiful,right,2,,,,,,,,,,,,,1,43,123,30,,,,,,,,,,,,,,,,,,,,,,,,,None,252.37100074399495,None,,,,,,,251.2700715210085,None,251.2700715210085,None,right,1,1.0992969750077464,251.2700715210085,None,,,,,,,,,,,,,,,,,,,,,,,,,,,,,,,,,,,,,,,,,,3,26,m,2021_Apr_09_1744,ldt_en_hi,2021.1.3,1308.2813157965136,
,,,,perform,average,right,2,,,,,,,,,,,,,1,44,124,23,,,,,,,,,,,,,,,,,,,,,,,,,None,254.48522886399587,None,,,,,,,252.87507780900341,None,252.87507780900341,None,right,1,1.608506140008103,252.87507780900341,None,,,,,,,,,,,,,,,,,,,,,,,,,,,,,,,,,,,,,,,,,,3,26,m,2021_Apr_09_1744,ldt_en_hi,2021.1.3,1308.2813157965136,
,,,,inventor,leab,left,5,,,,,,,,,,,,,1,45,125,54,,,,,,,,,,,,,,,,,,,,,,,,,None,256.02392959900317,None,,,,,,,254.9893898750015,None,254.9893898750015,None,right,0,1.0329185809969204,254.9893898750015,None,,,,,,,,,,,,,,,,,,,,,,,,,,,,,,,,,,,,,,,,,,3,26,m,2021_Apr_09_1744,ldt_en_hi,2021.1.3,1308.2813157965136,
,,,,aczreis,duty,left,4,,,,,,,,,,,,,1,46,126,67,,,,,,,,,,,,,,,,,,,,,,,,,None,257.4961294960085,None,,,,,,,256.52768418900087,None,256.52768418900087,None,left,1,0.9665493270003935,256.52768418900087,None,,,,,,,,,,,,,,,,,,,,,,,,,,,,,,,,,,,,,,,,,,3,26,m,2021_Apr_09_1744,ldt_en_hi,2021.1.3,1308.2813157965136,
,,,,cauliflower,broccoli,right,1,,,,,,,,,,,,,1,47,127,12,,,,,,,,,,,,,,,,,,,,,,,,,None,258.8465794049989,None,,,,,,,257.99987570400117,None,257.99987570400117,None,right,1,0.845077809994109,257.99987570400117,None,,,,,,,,,,,,,,,,,,,,,,,,,,,,,,,,,,,,,,,,,,3,26,m,2021_Apr_09_1744,ldt_en_hi,2021.1.3,1308.2813157965136,
,,,,buws,decide,left,4,,,,,,,,,,,,,1,48,128,73,,,,,,,,,,,,,,,,,,,,,,,,,None,260.5450786940055,None,,,,,,,259.3507234540011,None,259.3507234540011,None,left,1,1.192724153996096,259.3507234540011,None,,,,,,,,,,,,,,,,,,,,,,,,,,,,,,,,,,,,,,,,,,3,26,m,2021_Apr_09_1744,ldt_en_hi,2021.1.3,1308.2813157965136,
,,,,ocbohus,bitch,left,4,,,,,,,,,,,,,1,49,129,72,,,,,,,,,,,,,,,,,,,,,,,,,None,262.2033745240042,None,,,,,,,261.0490444409952,None,261.0490444409952,None,left,1,1.152693862997694,261.0490444409952,None,,,,,,,,,,,,,,,,,,,,,,,,,,,,,,,,,,,,,,,,,,3,26,m,2021_Apr_09_1744,ldt_en_hi,2021.1.3,1308.2813157965136,
,,,,magazine,book,right,1,,,,,,,,,,,,,1,50,130,10,,,,,,,,,,,,,,,,,,,,,,,,,None,263.3782413459994,None,,,,,,,262.7073049800092,None,262.7073049800092,None,right,1,0.6693027750006877,262.7073049800092,None,,,,,,,,,,,,,,,,,,,,,,,,,,,,,,,,,,,,,,,,,,3,26,m,2021_Apr_09_1744,ldt_en_hi,2021.1.3,1308.2813157965136,
,,,,rug,carpet,right,1,,,,,,,,,,,,,1,51,131,15,,,,,,,,,,,,,,,,,,,,,,,,,None,265.1243202260084,None,,,,,,,263.8823828780005,None,263.8823828780005,None,right,1,1.240305569008342,263.8823828780005,None,,,,,,,,,,,,,,,,,,,,,,,,,,,,,,,,,,,,,,,,,,3,26,m,2021_Apr_09_1744,ldt_en_hi,2021.1.3,1308.2813157965136,
,,,,snuggle,atnton,left,5,,,,,,,,,,,,,1,52,132,56,,,,,,,,,,,,,,,,,,,,,,,,,None,266.1989100119972,None,,,,,,,265.6284703919955,None,265.6284703919955,None,left,1,0.5688440910016652,265.6284703919955,None,,,,,,,,,,,,,,,,,,,,,,,,,,,,,,,,,,,,,,,,,,3,26,m,2021_Apr_09_1744,ldt_en_hi,2021.1.3,1308.2813157965136,
,,,,disagreement,blanket,right,2,,,,,,,,,,,,,1,53,133,36,,,,,,,,,,,,,,,,,,,,,,,,,None,267.63395836000564,None,,,,,,,266.7032165950077,None,266.7032165950077,None,right,1,0.9291050110041397,266.7032165950077,None,,,,,,,,,,,,,,,,,,,,,,,,,,,,,,,,,,,,,,,,,,3,26,m,2021_Apr_09_1744,ldt_en_hi,2021.1.3,1308.2813157965136,
,,,,frugtry,cheat,left,4,,,,,,,,,,,,,1,54,134,70,,,,,,,,,,,,,,,,,,,,,,,,,None,269.69596488800016,None,,,,,,,268.13808347699523,None,268.13808347699523,None,left,1,1.5562485959962942,268.13808347699523,None,,,,,,,,,,,,,,,,,,,,,,,,,,,,,,,,,,,,,,,,,,3,26,m,2021_Apr_09_1744,ldt_en_hi,2021.1.3,1308.2813157965136,
,,,,exdlavstion,cloth,left,4,,,,,,,,,,,,,1,55,135,71,,,,,,,,,,,,,,,,,,,,,,,,,None,271.2339943160041,None,,,,,,,270.2004085869994,None,270.2004085869994,None,left,1,1.0319517719908617,270.2004085869994,None,,,,,,,,,,,,,,,,,,,,,,,,,,,,,,,,,,,,,,,,,,3,26,m,2021_Apr_09_1744,ldt_en_hi,2021.1.3,1308.2813157965136,
,,,,mustache,beard,right,1,,,,,,,,,,,,,1,56,136,6,,,,,,,,,,,,,,,,,,,,,,,,,None,272.5170281930041,None,,,,,,,271.7380847690074,None,271.7380847690074,None,right,1,0.7773113849980291,271.7380847690074,None,,,,,,,,,,,,,,,,,,,,,,,,,,,,,,,,,,,,,,,,,,3,26,m,2021_Apr_09_1744,ldt_en_hi,2021.1.3,1308.2813157965136,
,,,,udvirb,prew,left,3,,,,,,,,,,,,,1,57,137,47,,,,,,,,,,,,,,,,,,,,,,,,,None,273.8331608120061,None,,,,,,,273.02116532500077,None,273.02116532500077,None,left,1,0.8103633889986668,273.02116532500077,None,,,,,,,,,,,,,,,,,,,,,,,,,,,,,,,,,,,,,,,,,,3,26,m,2021_Apr_09_1744,ldt_en_hi,2021.1.3,1308.2813157965136,
,,,,sister,brother,right,1,,,,,,,,,,,,,1,58,138,13,,,,,,,,,,,,,,,,,,,,,,,,,None,274.9693000279949,None,,,,,,,274.33696038700873,None,274.33696038700873,None,right,1,0.6307666009961395,274.33696038700873,None,,,,,,,,,,,,,,,,,,,,,,,,,,,,,,,,,,,,,,,,,,3,26,m,2021_Apr_09_1744,ldt_en_hi,2021.1.3,1308.2813157965136,
,,,,suggest,ballet,right,2,,,,,,,,,,,,,1,59,139,26,,,,,,,,,,,,,,,,,,,,,,,,,None,276.2665272150043,None,,,,,,,275.47619901399594,None,275.47619901399594,None,right,1,0.7884353619883768,275.47619901399594,None,,,,,,,,,,,,,,,,,,,,,,,,,,,,,,,,,,,,,,,,,,3,26,m,2021_Apr_09_1744,ldt_en_hi,2021.1.3,1308.2813157965136,
,,,,caklqblower,fashion,left,4,,,,,,,,,,,,,1,60,140,79,,,,,,,,,,,,,,,,,,,,,,,,,None,277.72810442899936,None,,,,,,,276.7704074020003,None,276.7704074020003,None,left,1,0.956074012996396,276.7704074020003,None,,,,,,,,,,,,,,,,,,,,,,,,,,,,,,,,,,,,,,,,,,3,26,m,2021_Apr_09_1744,ldt_en_hi,2021.1.3,1308.2813157965136,
,,,,mgstachi,forest,left,4,,,,,,,,,,,,,1,61,141,74,,,,,,,,,,,,,,,,,,,,,,,,,None,279.3592433580052,None,,,,,,,278.2321383570088,None,278.2321383570088,None,left,1,1.1254738679999718,278.2321383570088,None,,,,,,,,,,,,,,,,,,,,,,,,,,,,,,,,,,,,,,,,,,3,26,m,2021_Apr_09_1744,ldt_en_hi,2021.1.3,1308.2813157965136,
,,,,explanation,answer,right,1,,,,,,,,,,,,,1,62,142,3,,,,,,,,,,,,,,,,,,,,,,,,,None,280.50594231599825,None,,,,,,,279.8636111310043,None,279.8636111310043,None,right,1,0.6406929410004523,279.8636111310043,None,,,,,,,,,,,,,,,,,,,,,,,,,,,,,,,,,,,,,,,,,,3,26,m,2021_Apr_09_1744,ldt_en_hi,2021.1.3,1308.2813157965136,
,,,,ballet,fgor,left,5,,,,,,,,,,,,,1,63,143,60,,,,,,,,,,,,,,,,,,,,,,,,,None,281.6204406629986,None,,,,,,,281.010233494002,None,281.010233494002,None,left,1,0.6085668870073278,281.010233494002,None,,,,,,,,,,,,,,,,,,,,,,,,,,,,,,,,,,,,,,,,,,3,26,m,2021_Apr_09_1744,ldt_en_hi,2021.1.3,1308.2813157965136,
,,,,mug,beer,right,1,,,,,,,,,,,,,1,64,144,7,,,,,,,,,,,,,,,,,,,,,,,,,None,282.7181569490058,None,,,,,,,282.1248646489985,None,282.1248646489985,None,right,1,0.5916570150002372,282.1248646489985,None,,,,,,,,,,,,,,,,,,,,,,,,,,,,,,,,,,,,,,,,,,3,26,m,2021_Apr_09_1744,ldt_en_hi,2021.1.3,1308.2813157965136,
,,,,tricycle,bicycle,right,1,,,,,,,,,,,,,1,65,145,9,,,,,,,,,,,,,,,,,,,,,,,,,None,283.87948329700157,None,,,,,,,283.222035711995,None,283.222035711995,None,right,1,0.6558182260050671,283.222035711995,None,,,,,,,,,,,,,,,,,,,,,,,,,,,,,,,,,,,,,,,,,,3,26,m,2021_Apr_09_1744,ldt_en_hi,2021.1.3,1308.2813157965136,
,,,,suggeyf,biurd,left,3,,,,,,,,,,,,,1,66,146,48,,,,,,,,,,,,,,,,,,,,,,,,,None,285.52677032399515,None,,,,,,,284.3835256409948,None,284.3835256409948,None,left,1,1.1416211390023818,284.3835256409948,None,,,,,,,,,,,,,,,,,,,,,,,,,,,,,,,,,,,,,,,,,,3,26,m,2021_Apr_09_1744,ldt_en_hi,2021.1.3,1308.2813157965136,
,,,,awbxenems,belvem,left,3,,,,,,,,,,,,,1,67,147,50,,,,,,,,,,,,,,,,,,,,,,,,,None,286.8046455520089,None,,,,,,,286.0310126240074,None,286.0310126240074,None,left,1,0.7719939689995954,286.0310126240074,None,,,,,,,,,,,,,,,,,,,,,,,,,,,,,,,,,,,,,,,,,,3,26,m,2021_Apr_09_1744,ldt_en_hi,2021.1.3,1308.2813157965136,
,,,,displfow,pcycce,left,3,,,,,,,,,,,,,1,68,148,51,,,,,,,,,,,,,,,,,,,,,,,,,None,287.85106890500174,None,,,,,,,287.30894517600245,None,287.30894517600245,None,left,1,0.5404899370041676,287.30894517600245,None,,,,,,,,,,,,,,,,,,,,,,,,,,,,,,,,,,,,,,,,,,3,26,m,2021_Apr_09_1744,ldt_en_hi,2021.1.3,1308.2813157965136,
,,,,tumor,cancer,right,1,,,,,,,,,,,,,1,69,149,14,,,,,,,,,,,,,,,,,,,,,,,,,None,288.9788317210041,None,,,,,,,288.35540117100754,None,288.35540117100754,None,right,1,0.6217924899974605,288.35540117100754,None,,,,,,,,,,,,,,,,,,,,,,,,,,,,,,,,,,,,,,,,,,3,26,m,2021_Apr_09_1744,ldt_en_hi,2021.1.3,1308.2813157965136,
,,,,corpse,bigan,left,5,,,,,,,,,,,,,1,70,150,64,,,,,,,,,,,,,,,,,,,,,,,,,None,290.1248269180069,None,,,,,,,289.4828784160054,None,289.4828784160054,None,left,1,0.6403249540016986,289.4828784160054,None,,,,,,,,,,,,,,,,,,,,,,,,,,,,,,,,,,,,,,,,,,3,26,m,2021_Apr_09_1744,ldt_en_hi,2021.1.3,1308.2813157965136,
,,,,adverb,backpack,right,2,,,,,,,,,,,,,1,71,151,25,,,,,,,,,,,,,,,,,,,,,,,,,None,292.0693933500006,None,,,,,,,290.6292844730051,None,290.6292844730051,None,right,1,1.4382362580072368,290.6292844730051,None,,,,,,,,,,,,,,,,,,,,,,,,,,,,,,,,,,,,,,,,,,3,26,m,2021_Apr_09_1744,ldt_en_hi,2021.1.3,1308.2813157965136,
,,,,adventure,bnat,left,5,,,,,,,,,,,,,1,72,152,62,,,,,,,,,,,,,,,,,,,,,,,,,None,294.250318602004,None,,,,,,,292.57371139200404,None,292.57371139200404,None,left,1,1.6749528019863646,292.57371139200404,None,,,,,,,,,,,,,,,,,,,,,,,,,,,,,,,,,,,,,,,,,,3,26,m,2021_Apr_09_1744,ldt_en_hi,2021.1.3,1308.2813157965136,
,,,,busy,bored,right,1,,,,,,,,,,,,,1,73,153,11,,,,,,,,,,,,,,,,,,,,,,,,,None,296.00629523700627,None,,,,,,,294.754028794996,None,294.754028794996,None,right,1,1.2503880300064338,294.754028794996,None,,,,,,,,,,,,,,,,,,,,,,,,,,,,,,,,,,,,,,,,,,3,26,m,2021_Apr_09_1744,ldt_en_hi,2021.1.3,1308.2813157965136,
,,,,valuabzr,additkos,left,3,,,,,,,,,,,,,1,74,154,42,,,,,,,,,,,,,,,,,,,,,,,,,None,297.54104263399495,None,,,,,,,296.5103966260067,None,296.5103966260067,None,left,1,1.0290082320134388,296.5103966260067,None,,,,,,,,,,,,,,,,,,,,,,,,,,,,,,,,,,,,,,,,,,3,26,m,2021_Apr_09_1744,ldt_en_hi,2021.1.3,1308.2813157965136,
,,,,cowtnet,freedom,left,4,,,,,,,,,,,,,1,75,155,69,,,,,,,,,,,,,,,,,,,,,,,,,None,299.1179221259954,None,,,,,,,298.0454381190066,None,298.0454381190066,None,left,1,1.0708522979984991,298.0454381190066,None,,,,,,,,,,,,,,,,,,,,,,,,,,,,,,,,,,,,,,,,,,3,26,m,2021_Apr_09_1744,ldt_en_hi,2021.1.3,1308.2813157965136,
,,,,fury,beginner,right,2,,,,,,,,,,,,,1,76,156,32,,,,,,,,,,,,,,,,,,,,,,,,,None,300.39083464800206,None,,,,,,,299.62178047699854,None,299.62178047699854,None,left,0,0.7674073319940362,299.62178047699854,None,,,,,,,,,,,,,,,,,,,,,,,,,,,,,,,,,,,,,,,,,,3,26,m,2021_Apr_09_1744,ldt_en_hi,2021.1.3,1308.2813157965136,
,,,,anteater,belt,right,2,,,,,,,,,,,,,1,77,157,33,,,,,,,,,,,,,,,,,,,,,,,,,None,302.0003027479979,None,,,,,,,300.89503782600514,None,300.89503782600514,None,left,0,1.10361231501156,300.89503782600514,None,,,,,,,,,,,,,,,,,,,,,,,,,,,,,,,,,,,,,,,,,,3,26,m,2021_Apr_09_1744,ldt_en_hi,2021.1.3,1308.2813157965136,
,,,,riject,farm,left,4,,,,,,,,,,,,,1,78,158,66,,,,,,,,,,,,,,,,,,,,,,,,,None,303.9850963589997,None,,,,,,,302.50432768600876,None,302.50432768600876,None,left,1,1.4791362200048752,302.50432768600876,None,,,,,,,,,,,,,,,,,,,,,,,,,,,,,,,,,,,,,,,,,,3,26,m,2021_Apr_09_1744,ldt_en_hi,2021.1.3,1308.2813157965136,
,,,,capability,attic,right,2,,,,,,,,,,,,,1,79,159,22,,,,,,,,,,,,,,,,,,,,,,,,,None,305.55800658199587,None,,,,,,,304.48937755099905,None,304.48937755099905,None,left,0,1.0669904980022693,304.48937755099905,None,,,,,,,,,,,,,,,,,,,,,,,,,,,,,,,,,,,,,,,,,,3,26,m,2021_Apr_09_1744,ldt_en_hi,2021.1.3,1308.2813157965136,
,,,,,,,,,,,,,,,,,,,,,,,,,,,,,,,,,,,,,,,,,,,,,,,,,,,,,,,,,,,,,,,,,,306.0593694919953,None,right,0,3.757611923996592,306.0593694919953,None,,,,,,,,,,,,,,,,,,,,,,,,,,,,,,,,,,,3,26,m,2021_Apr_09_1744,ldt_en_hi,2021.1.3,1308.2813157965136,
,,,,,,,,मेंढक,deaf,right,7,,,,,,,,,,,,,0,0,0,3,,,,,,,,,,,,,,,,,,,,,None,311.7700334280089,None,,,,,,,,,,,,,,,,,,,,,,,309.87192503800907,None,309.87192503800907,None,right,1,1.8960379939962877,309.87192503800907,None,,,,,,,,,,,,,,,,,,,,,,,,,,3,26,m,2021_Apr_09_1744,ldt_en_hi,2021.1.3,1308.2813157965136,
,,,,,,,,नेता,follower,right,6,,,,,,,,,,,,,0,1,1,0,,,,,,,,,,,,,,,,,,,,,None,313.5133793980058,None,,,,,,,,,,,,,,,,,,,,,,,312.30223302100785,None,312.30223302100785,None,right,1,1.2095241630013334,312.30223302100785,None,,,,,,,,,,,,,,,,,,,,,,,,,,3,26,m,2021_Apr_09_1744,ldt_en_hi,2021.1.3,1308.2813157965136,
,,,,,,,,नता,babi,left,8,,,,,,,,,,,,,0,2,2,1,,,,,,,,,,,,,,,,,,,,,None,315.025679562008,None,,,,,,,,,,,,,,,,,,,,,,,314.01703186900704,None,314.01703186900704,None,left,1,1.0070136709982762,314.01703186900704,None,,,,,,,,,,,,,,,,,,,,,,,,,,3,26,m,2021_Apr_09_1744,ldt_en_hi,2021.1.3,1308.2813157965136,
,,,,,,,,भेंस,imhge,left,10,,,,,,,,,,,,,0,3,3,4,,,,,,,,,,,,,,,,,,,,,None,316.6760211070068,None,,,,,,,,,,,,,,,,,,,,,,,315.5569560290023,None,315.5569560290023,None,left,1,1.1174364919861546,315.5569560290023,None,,,,,,,,,,,,,,,,,,,,,,,,,,3,26,m,2021_Apr_09_1744,ldt_en_hi,2021.1.3,1308.2813157965136,
,,,,,,,,टराव,explanation,left,9,,,,,,,,,,,,,0,4,4,2,,,,,,,,,,,,,,,,,,,,,None,317.9711381980014,None,,,,,,,,,,,,,,,,,,,,,,,317.2101057789987,None,317.2101057789987,None,left,1,0.7594109929923434,317.2101057789987,None,,,,,,,,,,,,,,,,,,,,,,,,,,3,26,m,2021_Apr_09_1744,ldt_en_hi,2021.1.3,1308.2813157965136,
,,,,,,,,,,,,,,,,,,,,,,,,,,,,,,,,,,,,,,,,,,,,,,,,,,,318.4726287770027,None,right,0.7506947119982215,318.4726287770027,None,,,,,,,,,,,,,,,,,,,,,,,,,,,,,,,,,,,,,,,,,,,,,,,,,,,3,26,m,2021_Apr_09_1744,ldt_en_hi,2021.1.3,1308.2813157965136,
,,,,,,,,,,,,मगरम,bow,left,9,,,,,,,,,,,,,0,0,0,70,,,,,,,,,,,,,,,,,None,321.33199008600786,None,,,,,,,,,,,,,,,,,,,,,,,,,,,,,,,,319.26490852600546,None,319.26490852600546,None,left,1,2.064770693992614,319.26490852600546,None,,,,,,,,,,,,,,,,,3,26,m,2021_Apr_09_1744,ldt_en_hi,2021.1.3,1308.2813157965136,
,,,,,,,,,,,,भगवान,temple,right,6,,,,,,,,,,,,,0,1,1,15,,,,,,,,,,,,,,,,,None,322.7837075940042,None,,,,,,,,,,,,,,,,,,,,,,,,,,,,,,,,321.8366064209986,None,321.8366064209986,None,right,1,0.9454395099892281,321.8366064209986,None,,,,,,,,,,,,,,,,,3,26,m,2021_Apr_09_1744,ldt_en_hi,2021.1.3,1308.2813157965136,
,,,,,,,,,,,,गाड़ी,auto,right,6,,,,,,,,,,,,,0,2,2,2,,,,,,,,,,,,,,,,,None,324.0736934669985,None,,,,,,,,,,,,,,,,,,,,,,,,,,,,,,,,323.31371129299805,None,323.31371129299805,None,right,1,0.758073491990217,323.31371129299805,None,,,,,,,,,,,,,,,,,3,26,m,2021_Apr_09_1744,ldt_en_hi,2021.1.3,1308.2813157965136,
,,,,,,,,,,,,लड़ाकू,boxer,right,6,,,,,,,,,,,,,0,3,3,9,,,,,,,,,,,,,,,,,None,325.26351857499685,None,,,,,,,,,,,,,,,,,,,,,,,,,,,,,,,,324.6004829279991,None,324.6004829279991,None,right,1,0.6613738939922769,324.6004829279991,None,,,,,,,,,,,,,,,,,3,26,m,2021_Apr_09_1744,ldt_en_hi,2021.1.3,1308.2813157965136,
,,,,,,,,,,,,वकी,averake,left,8,,,,,,,,,,,,,0,4,4,63,,,,,,,,,,,,,,,,,None,327.3911269109958,None,,,,,,,,,,,,,,,,,,,,,,,,,,,,,,,,325.7691174460051,None,325.7691174460051,None,left,1,1.6203535609965911,325.7691174460051,None,,,,,,,,,,,,,,,,,3,26,m,2021_Apr_09_1744,ldt_en_hi,2021.1.3,1308.2813157965136,
,,,,,,,,,,,,महंगा,cheap,right,6,,,,,,,,,,,,,0,5,5,13,,,,,,,,,,,,,,,,,None,329.13078469899483,None,,,,,,,,,,,,,,,,,,,,,,,,,,,,,,,,327.91212857900246,None,327.91212857900246,None,right,1,1.2170437400054652,327.91212857900246,None,,,,,,,,,,,,,,,,,3,26,m,2021_Apr_09_1744,ldt_en_hi,2021.1.3,1308.2813157965136,
,,,,,,,,,,,,भीड़,crowd,right,6,,,,,,,,,,,,,0,6,6,17,,,,,,,,,,,,,,,,,None,330.37177939299727,None,,,,,,,,,,,,,,,,,,,,,,,,,,,,,,,,329.6346223700093,None,329.6346223700093,None,right,1,0.7350011329981498,329.6346223700093,None,,,,,,,,,,,,,,,,,3,26,m,2021_Apr_09_1744,ldt_en_hi,2021.1.3,1308.2813157965136,
,,,,,,,,,,,,यूोप,builde,left,8,,,,,,,,,,,,,0,7,7,55,,,,,,,,,,,,,,,,,None,331.66687864200503,None,,,,,,,,,,,,,,,,,,,,,,,,,,,,,,,,330.90923276099784,None,330.90923276099784,None,left,1,0.7559780209994642,330.90923276099784,None,,,,,,,,,,,,,,,,,3,26,m,2021_Apr_09_1744,ldt_en_hi,2021.1.3,1308.2813157965136,
,,,,,,,,,,,,सच,copy,right,7,,,,,,,,,,,,,0,8,8,25,,,,,,,,,,,,,,,,,None,333.6147524170083,None,,,,,,,,,,,,,,,,,,,,,,,,,,,,,,,,332.18384511400654,None,332.18384511400654,None,right,1,1.4292522960022325,332.18384511400654,None,,,,,,,,,,,,,,,,,3,26,m,2021_Apr_09_1744,ldt_en_hi,2021.1.3,1308.2813157965136,
,,,,,,,,,,,,वन,chaos,right,7,,,,,,,,,,,,,0,9,9,33,,,,,,,,,,,,,,,,,None,335.60833403799916,None,,,,,,,,,,,,,,,,,,,,,,,,,,,,,,,,334.11837079099496,None,334.11837079099496,None,right,1,1.4883058929990511,334.11837079099496,None,,,,,,,,,,,,,,,,,3,26,m,2021_Apr_09_1744,ldt_en_hi,2021.1.3,1308.2813157965136,
,,,,,,,,,,,,लड़की,baby,right,6,,,,,,,,,,,,,0,10,10,3,,,,,,,,,,,,,,,,,None,336.80141829600325,None,,,,,,,,,,,,,,,,,,,,,,,,,,,,,,,,336.1125508789992,None,336.1125508789992,None,right,1,0.6872237280040281,336.1125508789992,None,,,,,,,,,,,,,,,,,3,26,m,2021_Apr_09_1744,ldt_en_hi,2021.1.3,1308.2813157965136,
,,,,,,,,,,,,घर,blow,right,7,,,,,,,,,,,,,0,11,11,28,,,,,,,,,,,,,,,,,None,337.8207158830046,None,,,,,,,,,,,,,,,,,,,,,,,,,,,,,,,,337.31802906699886,None,337.31802906699886,None,right,1,0.5010008969984483,337.31802906699886,None,,,,,,,,,,,,,,,,,3,26,m,2021_Apr_09_1744,ldt_en_hi,2021.1.3,1308.2813157965136,
,,,,,,,,,,,,अभिनय,calm,right,7,,,,,,,,,,,,,0,12,12,35,,,,,,,,,,,,,,,,,None,340.3590685070085,None,,,,,,,,,,,,,,,,,,,,,,,,,,,,,,,,338.357496689001,None,338.357496689001,None,left,0,1.999920750997262,338.357496689001,None,,,,,,,,,,,,,,,,,3,26,m,2021_Apr_09_1744,ldt_en_hi,2021.1.3,1308.2813157965136,
,,,,,,,,,,,,मछली,ucter,left,10,,,,,,,,,,,,,0,13,13,52,,,,,,,,,,,,,,,,,None,343.06053828200675,None,,,,,,,,,,,,,,,,,,,,,,,,,,,,,,,,340.8765795070067,None,340.8765795070067,None,left,1,2.182307094000862,340.8765795070067,None,,,,,,,,,,,,,,,,,3,26,m,2021_Apr_09_1744,ldt_en_hi,2021.1.3,1308.2813157965136,
,,,,,,,,,,,,मदान,gway,left,8,,,,,,,,,,,,,0,14,14,57,,,,,,,,,,,,,,,,,None,345.0689555249992,None,,,,,,,,,,,,,,,,,,,,,,,,,,,,,,,,343.575963167008,None,343.575963167008,None,left,1,1.4913385100080632,343.575963167008,None,,,,,,,,,,,,,,,,,3,26,m,2021_Apr_09_1744,ldt_en_hi,2021.1.3,1308.2813157965136,
,,,,,,,,,,,,सिपाही,empty,right,7,,,,,,,,,,,,,0,15,15,27,,,,,,,,,,,,,,,,,None,347.1575757249957,None,,,,,,,,,,,,,,,,,,,,,,,,,,,,,,,,345.57337428200117,None,345.57337428200117,None,left,0,1.5825469279952813,345.57337428200117,None,,,,,,,,,,,,,,,,,3,26,m,2021_Apr_09_1744,ldt_en_hi,2021.1.3,1308.2813157965136,
,,,,,,,,,,,,हानि,deaf,right,7,,,,,,,,,,,,,0,16,16,39,,,,,,,,,,,,,,,,,None,348.66452696200577,None,,,,,,,,,,,,,,,,,,,,,,,,,,,,,,,,347.66199257700646,None,347.66199257700646,None,left,0,1.0008656759891892,347.66199257700646,None,,,,,,,,,,,,,,,,,3,26,m,2021_Apr_09_1744,ldt_en_hi,2021.1.3,1308.2813157965136,
,,,,,,,,,,,,अनाज,breakfast,right,6,,,,,,,,,,,,,0,17,17,11,,,,,,,,,,,,,,,,,None,350.04374833600014,None,,,,,,,,,,,,,,,,,,,,,,,,,,,,,,,,349.18308556800184,None,349.18308556800184,None,right,1,0.8590087269985816,349.18308556800184,None,,,,,,,,,,,,,,,,,3,26,m,2021_Apr_09_1744,ldt_en_hi,2021.1.3,1308.2813157965136,
,,,,,,,,,,,,परावान,octopus,left,9,,,,,,,,,,,,,0,18,18,69,,,,,,,,,,,,,,,,,None,354.9586461800063,None,,,,,,,,,,,,,,,,,,,,,,,,,,,,,,,,350.5479355730058,None,350.5479355730058,None,left,1,4.409103926998796,350.5479355730058,None,,,,,,,,,,,,,,,,,3,26,m,2021_Apr_09_1744,ldt_en_hi,2021.1.3,1308.2813157965136,
,,,,,,,,,,,,केल,fgor,left,8,,,,,,,,,,,,,0,19,19,64,,,,,,,,,,,,,,,,,None,356.33219241800543,None,,,,,,,,,,,,,,,,,,,,,,,,,,,,,,,,355.46241872399696,None,355.46241872399696,None,left,1,0.868119465012569,355.46241872399696,None,,,,,,,,,,,,,,,,,3,26,m,2021_Apr_09_1744,ldt_en_hi,2021.1.3,1308.2813157965136,
,,,,,,,,,,,,परावान,valuable,left,9,,,,,,,,,,,,,0,20,20,79,,,,,,,,,,,,,,,,,None,357.5615636529983,None,,,,,,,,,,,,,,,,,,,,,,,,,,,,,,,,356.8365276490076,None,356.8365276490076,None,left,1,0.723393081992981,356.8365276490076,None,,,,,,,,,,,,,,,,,3,26,m,2021_Apr_09_1744,ldt_en_hi,2021.1.3,1308.2813157965136,
,,,,,,,,,,,,शेर,lion,right,6,,,,,,,,,,,,,0,21,21,1,,,,,,,,,,,,,,,,,None,358.74004637599865,None,,,,,,,,,,,,,,,,,,,,,,,,,,,,,,,,358.0784695120092,None,358.0784695120092,None,right,1,0.6598972640058491,358.0784695120092,None,,,,,,,,,,,,,,,,,3,26,m,2021_Apr_09_1744,ldt_en_hi,2021.1.3,1308.2813157965136,
,,,,,,,,,,,,अनुबध,leab,left,8,,,,,,,,,,,,,0,22,22,59,,,,,,,,,,,,,,,,,None,360.98272527600056,None,,,,,,,,,,,,,,,,,,,,,,,,,,,,,,,,359.2738387790014,None,359.2738387790014,None,right,0,1.7070113499939907,359.2738387790014,None,,,,,,,,,,,,,,,,,3,26,m,2021_Apr_09_1744,ldt_en_hi,2021.1.3,1308.2813157965136,
,,,,,,,,,,,,पतल,dival,left,8,,,,,,,,,,,,,0,23,23,60,,,,,,,,,,,,,,,,,None,363.4688074709993,None,,,,,,,,,,,,,,,,,,,,,,,,,,,,,,,,361.48706381100055,None,361.48706381100055,None,left,1,1.9800999550061533,361.48706381100055,None,,,,,,,,,,,,,,,,,3,26,m,2021_Apr_09_1744,ldt_en_hi,2021.1.3,1308.2813157965136,
,,,,,,,,,,,,कंबल,poldcemps,left,10,,,,,,,,,,,,,0,24,24,46,,,,,,,,,,,,,,,,,None,367.5024139730085,None,,,,,,,,,,,,,,,,,,,,,,,,,,,,,,,,363.9728525190003,None,363.9728525190003,None,right,0,3.527900271990802,363.9728525190003,None,,,,,,,,,,,,,,,,,3,26,m,2021_Apr_09_1744,ldt_en_hi,2021.1.3,1308.2813157965136,
,,,,,,,,,,,,साल,age,right,6,,,,,,,,,,,,,0,25,25,0,,,,,,,,,,,,,,,,,None,368.6956737529981,None,,,,,,,,,,,,,,,,,,,,,,,,,,,,,,,,368.0061522629985,None,368.0061522629985,None,right,1,0.6878838900011033,368.0061522629985,None,,,,,,,,,,,,,,,,,3,26,m,2021_Apr_09_1744,ldt_en_hi,2021.1.3,1308.2813157965136,
,,,,,,,,,,,,अजमदा,uttac,left,8,,,,,,,,,,,,,0,26,26,62,,,,,,,,,,,,,,,,,None,369.87021254500723,None,,,,,,,,,,,,,,,,,,,,,,,,,,,,,,,,369.1995269150066,None,369.1995269150066,None,left,1,0.6690525190060725,369.1995269150066,None,,,,,,,,,,,,,,,,,3,26,m,2021_Apr_09_1744,ldt_en_hi,2021.1.3,1308.2813157965136,
,,,,,,,,,,,,जापान,china,right,6,,,,,,,,,,,,,0,27,27,14,,,,,,,,,,,,,,,,,None,370.95305731099506,None,,,,,,,,,,,,,,,,,,,,,,,,,,,,,,,,370.3739927669958,None,370.3739927669958,None,right,1,0.5774099050031509,370.3739927669958,None,,,,,,,,,,,,,,,,,3,26,m,2021_Apr_09_1744,ldt_en_hi,2021.1.3,1308.2813157965136,
,,,,,,,,,,,,गणित,biology,right,6,,,,,,,,,,,,,0,28,28,6,,,,,,,,,,,,,,,,,None,372.24350658099866,None,,,,,,,,,,,,,,,,,,,,,,,,,,,,,,,,371.47135337600776,None,371.47135337600776,None,left,0,0.7705523810000159,371.47135337600776,None,,,,,,,,,,,,,,,,,3,26,m,2021_Apr_09_1744,ldt_en_hi,2021.1.3,1308.2813157965136,
,,,,,,,,,,,,मेंढक,doe,right,7,,,,,,,,,,,,,0,29,29,36,,,,,,,,,,,,,,,,,None,374.25497786700726,None,,,,,,,,,,,,,,,,,,,,,,,,,,,,,,,,372.7475847970054,None,372.7475847970054,None,left,0,1.5054789319983684,372.7475847970054,None,,,,,,,,,,,,,,,,,3,26,m,2021_Apr_09_1744,ldt_en_hi,2021.1.3,1308.2813157965136,
,,,,,,,,,,,,यूोप,mustache,left,9,,,,,,,,,,,,,0,30,30,71,,,,,,,,,,,,,,,,,None,375.384378636998,None,,,,,,,,,,,,,,,,,,,,,,,,,,,,,,,,374.7592701530084,None,374.7592701530084,None,left,1,0.6234764999971958,374.7592701530084,None,,,,,,,,,,,,,,,,,3,26,m,2021_Apr_09_1744,ldt_en_hi,2021.1.3,1308.2813157965136,
,,,,,,,,,,,,अभिनय,disbhvmeve,left,10,,,,,,,,,,,,,0,31,31,41,,,,,,,,,,,,,,,,,None,376.8040846340009,None,,,,,,,,,,,,,,,,,,,,,,,,,,,,,,,,375.888856421996,None,375.888856421996,None,left,1,0.9135681800107704,375.888856421996,None,,,,,,,,,,,,,,,,,3,26,m,2021_Apr_09_1744,ldt_en_hi,2021.1.3,1308.2813157965136,
,,,,,,,,,,,,खोज,expensive,right,7,,,,,,,,,,,,,0,32,32,29,,,,,,,,,,,,,,,,,None,378.27052751100564,None,,,,,,,,,,,,,,,,,,,,,,,,,,,,,,,,377.3237645150075,None,377.3237645150075,None,right,1,0.9451621070038527,377.3237645150075,None,,,,,,,,,,,,,,,,,3,26,m,2021_Apr_09_1744,ldt_en_hi,2021.1.3,1308.2813157965136,
,,,,,,,,,,,,लड़की,boy,right,6,,,,,,,,,,,,,0,33,33,10,,,,,,,,,,,,,,,,,None,379.3599682119966,None,,,,,,,,,,,,,,,,,,,,,,,,,,,,,,,,378.7749262270081,None,378.7749262270081,None,right,1,0.5833898279961431,378.7749262270081,None,,,,,,,,,,,,,,,,,3,26,m,2021_Apr_09_1744,ldt_en_hi,2021.1.3,1308.2813157965136,
,,,,,,,,,,,,रात,day,right,6,,,,,,,,,,,,,0,34,34,19,,,,,,,,,,,,,,,,,None,380.59354044399515,None,,,,,,,,,,,,,,,,,,,,,,,,,,,,,,,,379.864380383995,None,379.864380383995,None,right,1,0.7275030770106241,379.864380383995,None,,,,,,,,,,,,,,,,,3,26,m,2021_Apr_09_1744,ldt_en_hi,2021.1.3,1308.2813157965136,
,,,,,,,,,,,,जगल,policeman,left,9,,,,,,,,,,,,,0,35,35,77,,,,,,,,,,,,,,,,,None,381.993806879007,None,,,,,,,,,,,,,,,,,,,,,,,,,,,,,,,,381.09735646400077,None,381.09735646400077,None,left,1,0.8948078390094452,381.09735646400077,None,,,,,,,,,,,,,,,,,3,26,m,2021_Apr_09_1744,ldt_en_hi,2021.1.3,1308.2813157965136,
,,,,,,,,,,,,खेती,dollars,right,7,,,,,,,,,,,,,0,36,36,21,,,,,,,,,,,,,,,,,None,383.3049526929972,None,,,,,,,,,,,,,,,,,,,,,,,,,,,,,,,,382.49775284400675,None,382.49775284400675,None,right,1,0.8055508959951112,382.49775284400675,None,,,,,,,,,,,,,,,,,3,26,m,2021_Apr_09_1744,ldt_en_hi,2021.1.3,1308.2813157965136,
,,,,,,,,,,,,नल,ltbster,left,10,,,,,,,,,,,,,0,37,37,47,,,,,,,,,,,,,,,,,None,384.8840269719949,None,,,,,,,,,,,,,,,,,,,,,,,,,,,,,,,,383.8090819479985,None,383.8090819479985,None,left,1,1.073279496995383,383.8090819479985,None,,,,,,,,,,,,,,,,,3,26,m,2021_Apr_09_1744,ldt_en_hi,2021.1.3,1308.2813157965136,
,,,,,,,,,,,,नाजु,ceok,left,8,,,,,,,,,,,,,0,38,38,58,,,,,,,,,,,,,,,,,None,386.17208682700584,None,,,,,,,,,,,,,,,,,,,,,,,,,,,,,,,,385.3877367179957,None,385.3877367179957,None,left,1,0.7827031140041072,385.3877367179957,None,,,,,,,,,,,,,,,,,3,26,m,2021_Apr_09_1744,ldt_en_hi,2021.1.3,1308.2813157965136,
,,,,,,,,,,,,केला,diary,right,7,,,,,,,,,,,,,0,39,39,37,,,,,,,,,,,,,,,,,None,387.32464586300193,None,,,,,,,,,,,,,,,,,,,,,,,,,,,,,,,,386.67610790500476,None,386.67610790500476,None,left,0,0.6468945949891349,386.67610790500476,None,,,,,,,,,,,,,,,,,3,26,m,2021_Apr_09_1744,ldt_en_hi,2021.1.3,1308.2813157965136,
,,,,,,,,,,,,विमान,decision,right,7,,,,,,,,,,,,,0,40,40,31,,,,,,,,,,,,,,,,,None,390.0886255130026,None,,,,,,,,,,,,,,,,,,,,,,,,,,,,,,,,387.8290070619987,None,387.8290070619987,None,left,0,2.257970684004249,387.8290070619987,None,,,,,,,,,,,,,,,,,3,26,m,2021_Apr_09_1744,ldt_en_hi,2021.1.3,1308.2813157965136,
,,,,,,,,,,,,कोमल,cure,right,7,,,,,,,,,,,,,0,41,41,34,,,,,,,,,,,,,,,,,None,391.2493455960066,None,,,,,,,,,,,,,,,,,,,,,,,,,,,,,,,,390.5928998349991,None,390.5928998349991,None,right,1,0.6548057080071885,390.5928998349991,None,,,,,,,,,,,,,,,,,3,26,m,2021_Apr_09_1744,ldt_en_hi,2021.1.3,1308.2813157965136,
,,,,,,,,,,,,गुफा,perigrm,left,10,,,,,,,,,,,,,0,42,42,51,,,,,,,,,,,,,,,,,None,393.2189247780043,None,,,,,,,,,,,,,,,,,,,,,,,,,,,,,,,,391.77114246699784,None,391.77114246699784,None,left,1,1.446123328001704,391.77114246699784,None,,,,,,,,,,,,,,,,,3,26,m,2021_Apr_09_1744,ldt_en_hi,2021.1.3,1308.2813157965136,
,,,,,,,,,,,,शहनाई,decay,right,7,,,,,,,,,,,,,0,43,43,30,,,,,,,,,,,,,,,,,None,394.6966289940028,None,,,,,,,,,,,,,,,,,,,,,,,,,,,,,,,,393.7394961069949,None,393.7394961069949,None,right,1,0.9554756669967901,393.7394961069949,None,,,,,,,,,,,,,,,,,3,26,m,2021_Apr_09_1744,ldt_en_hi,2021.1.3,1308.2813157965136,
,,,,,,,,,,,,तीर,bow,right,6,,,,,,,,,,,,,0,44,44,8,,,,,,,,,,,,,,,,,None,395.85128950599756,None,,,,,,,,,,,,,,,,,,,,,,,,,,,,,,,,395.2006062360015,None,395.2006062360015,None,right,1,0.6490400890033925,395.2006062360015,None,,,,,,,,,,,,,,,,,3,26,m,2021_Apr_09_1744,ldt_en_hi,2021.1.3,1308.2813157965136,
,,,,,,,,,,,,मगरम,hodker,left,8,,,,,,,,,,,,,0,45,45,54,,,,,,,,,,,,,,,,,None,397.07060408500547,None,,,,,,,,,,,,,,,,,,,,,,,,,,,,,,,,396.3554997970059,None,396.3554997970059,None,left,1,0.7132413859944791,396.3554997970059,None,,,,,,,,,,,,,,,,,3,26,m,2021_Apr_09_1744,ldt_en_hi,2021.1.3,1308.2813157965136,
,,,,,,,,,,,,गाय,valuabzr,left,10,,,,,,,,,,,,,0,46,46,48,,,,,,,,,,,,,,,,,None,398.8429934960004,None,,,,,,,,,,,,,,,,,,,,,,,,,,,,,,,,397.574749004998,None,397.574749004998,None,left,1,1.2666009809909156,397.574749004998,None,,,,,,,,,,,,,,,,,3,26,m,2021_Apr_09_1744,ldt_en_hi,2021.1.3,1308.2813157965136,
,,,,,,,,,,,,पागल,crazy,right,6,,,,,,,,,,,,,0,47,47,16,,,,,,,,,,,,,,,,,None,400.0054933060019,None,,,,,,,,,,,,,,,,,,,,,,,,,,,,,,,,399.3469531269948,None,399.3469531269948,None,right,1,0.6569042930059368,399.3469531269948,None,,,,,,,,,,,,,,,,,3,26,m,2021_Apr_09_1744,ldt_en_hi,2021.1.3,1308.2813157965136,
,,,,,,,,,,,,आतंक,average,right,7,,,,,,,,,,,,,0,48,48,23,,,,,,,,,,,,,,,,,None,401.29934393700387,None,,,,,,,,,,,,,,,,,,,,,,,,,,,,,,,,400.52831168800185,None,400.52831168800185,None,right,1,0.7693741749972105,400.52831168800185,None,,,,,,,,,,,,,,,,,3,26,m,2021_Apr_09_1744,ldt_en_hi,2021.1.3,1308.2813157965136,
,,,,,,,,,,,,गाजर,dasewn,left,10,,,,,,,,,,,,,0,49,49,49,,,,,,,,,,,,,,,,,None,402.5403325310035,None,,,,,,,,,,,,,,,,,,,,,,,,,,,,,,,,401.8036859470012,None,401.8036859470012,None,right,0,0.7349449910107069,401.8036859470012,None,,,,,,,,,,,,,,,,,3,26,m,2021_Apr_09_1744,ldt_en_hi,2021.1.3,1308.2813157965136,
,,,,,,,,,,,,बातचीत,busg,left,10,,,,,,,,,,,,,0,50,50,43,,,,,,,,,,,,,,,,,None,404.01500134699745,None,,,,,,,,,,,,,,,,,,,,,,,,,,,,,,,,403.0463453340053,None,403.0463453340053,None,left,1,0.9669967310037464,403.0463453340053,None,,,,,,,,,,,,,,,,,3,26,m,2021_Apr_09_1744,ldt_en_hi,2021.1.3,1308.2813157965136,
,,,,,,,,,,,,मैदान,blush,right,7,,,,,,,,,,,,,0,51,51,26,,,,,,,,,,,,,,,,,None,405.44122759900347,None,,,,,,,,,,,,,,,,,,,,,,,,,,,,,,,,404.52392932900693,None,404.52392932900693,None,right,1,0.9154012100043474,404.52392932900693,None,,,,,,,,,,,,,,,,,3,26,m,2021_Apr_09_1744,ldt_en_hi,2021.1.3,1308.2813157965136,
,,,,,,,,,,,,पैसे,cash,right,6,,,,,,,,,,,,,0,52,52,12,,,,,,,,,,,,,,,,,None,406.6722665270063,None,,,,,,,,,,,,,,,,,,,,,,,,,,,,,,,,405.945170357998,None,405.945170357998,None,right,1,0.725236953003332,405.945170357998,None,,,,,,,,,,,,,,,,,3,26,m,2021_Apr_09_1744,ldt_en_hi,2021.1.3,1308.2813157965136,
,,,,,,,,,,,,सावधान,caklqblower,left,10,,,,,,,,,,,,,0,53,53,44,,,,,,,,,,,,,,,,,None,408.1185603640042,None,,,,,,,,,,,,,,,,,,,,,,,,,,,,,,,,407.17643330199644,None,407.17643330199644,None,left,1,0.9404763289930997,407.17643330199644,None,,,,,,,,,,,,,,,,,3,26,m,2021_Apr_09_1744,ldt_en_hi,2021.1.3,1308.2813157965136,
,,,,,,,,,,,,नक,bnat,left,8,,,,,,,,,,,,,0,54,54,65,,,,,,,,,,,,,,,,,None,409.3298342640046,None,,,,,,,,,,,,,,,,,,,,,,,,,,,,,,,,408.6230367429962,None,408.6230367429962,None,left,1,0.7051550390024204,408.6230367429962,None,,,,,,,,,,,,,,,,,3,26,m,2021_Apr_09_1744,ldt_en_hi,2021.1.3,1308.2813157965136,
,,,,,,,,,,,,काम,imhge,left,10,,,,,,,,,,,,,0,55,55,40,,,,,,,,,,,,,,,,,None,410.78000345799956,None,,,,,,,,,,,,,,,,,,,,,,,,,,,,,,,,409.8338497329969,None,409.8338497329969,None,left,1,0.9445018440019339,409.8338497329969,None,,,,,,,,,,,,,,,,,3,26,m,2021_Apr_09_1744,ldt_en_hi,2021.1.3,1308.2813157965136,
,,,,,,,,,,,,सलाह,mabapine,left,10,,,,,,,,,,,,,0,56,56,42,,,,,,,,,,,,,,,,,None,412.2836883740092,None,,,,,,,,,,,,,,,,,,,,,,,,,,,,,,,,411.28389411199896,None,411.28389411199896,None,left,1,0.998146722005913,411.28389411199896,None,,,,,,,,,,,,,,,,,3,26,m,2021_Apr_09_1744,ldt_en_hi,2021.1.3,1308.2813157965136,
,,,,,,,,,,,,सावधान,capmpiwity,left,10,,,,,,,,,,,,,0,57,57,50,,,,,,,,,,,,,,,,,None,414.2274745760078,None,,,,,,,,,,,,,,,,,,,,,,,,,,,,,,,,412.78759859000274,None,412.78759859000274,None,left,1,1.4382178859959822,412.78759859000274,None,,,,,,,,,,,,,,,,,3,26,m,2021_Apr_09_1744,ldt_en_hi,2021.1.3,1308.2813157965136,
,,,,,,,,,,,,गायक,dancer,right,6,,,,,,,,,,,,,0,58,58,18,,,,,,,,,,,,,,,,,None,415.43550295900786,None,,,,,,,,,,,,,,,,,,,,,,,,,,,,,,,,414.73172151800827,None,414.73172151800827,None,left,0,0.7019328269961989,414.73172151800827,None,,,,,,,,,,,,,,,,,3,26,m,2021_Apr_09_1744,ldt_en_hi,2021.1.3,1308.2813157965136,
,,,,,,,,,,,,टराव,tumor,left,9,,,,,,,,,,,,,0,59,59,68,,,,,,,,,,,,,,,,,None,417.1337406100065,None,,,,,,,,,,,,,,,,,,,,,,,,,,,,,,,,415.9399400550028,None,415.9399400550028,None,left,1,1.1921626180119347,415.9399400550028,None,,,,,,,,,,,,,,,,,3,26,m,2021_Apr_09_1744,ldt_en_hi,2021.1.3,1308.2813157965136,
,,,,,,,,,,,,नेता,area,right,7,,,,,,,,,,,,,0,60,60,32,,,,,,,,,,,,,,,,,None,418.4904875840002,None,,,,,,,,,,,,,,,,,,,,,,,,,,,,,,,,417.63785198800906,None,417.63785198800906,None,right,1,0.8509940369985998,417.63785198800906,None,,,,,,,,,,,,,,,,,3,26,m,2021_Apr_09_1744,ldt_en_hi,2021.1.3,1308.2813157965136,
,,,,,,,,,,,,जोकर,eyes,right,7,,,,,,,,,,,,,0,61,61,38,,,,,,,,,,,,,,,,,None,419.7678629820002,None,,,,,,,,,,,,,,,,,,,,,,,,,,,,,,,,418.9949894510064,None,418.9949894510064,None,right,1,0.7712027870002203,418.9949894510064,None,,,,,,,,,,,,,,,,,3,26,m,2021_Apr_09_1744,ldt_en_hi,2021.1.3,1308.2813157965136,
,,,,,,,,,,,,जापान,cheat,right,7,,,,,,,,,,,,,0,62,62,22,,,,,,,,,,,,,,,,,None,421.05218146900006,None,,,,,,,,,,,,,,,,,,,,,,,,,,,,,,,,420.2716940590035,None,420.2716940590035,None,right,1,0.7788381239952287,420.2716940590035,None,,,,,,,,,,,,,,,,,3,26,m,2021_Apr_09_1744,ldt_en_hi,2021.1.3,1308.2813157965136,
,,,,,,,,,,,,संट,subtraction,left,9,,,,,,,,,,,,,0,63,63,67,,,,,,,,,,,,,,,,,None,422.9951876520063,None,,,,,,,,,,,,,,,,,,,,,,,,,,,,,,,,421.55655149099766,None,421.55655149099766,None,left,1,1.4369935239956249,421.55655149099766,None,,,,,,,,,,,,,,,,,3,26,m,2021_Apr_09_1744,ldt_en_hi,2021.1.3,1308.2813157965136,
,,,,,,,,,,,,असमल,beaufifsl,left,8,,,,,,,,,,,,,0,64,64,66,,,,,,,,,,,,,,,,,None,424.5314258169965,None,,,,,,,,,,,,,,,,,,,,,,,,,,,,,,,,423.4990897749958,None,423.4990897749958,None,left,1,1.0306893640081398,423.4990897749958,None,,,,,,,,,,,,,,,,,3,26,m,2021_Apr_09_1744,ldt_en_hi,2021.1.3,1308.2813157965136,
,,,,,,,,,,,,केल,cauliflower,left,9,,,,,,,,,,,,,0,65,65,73,,,,,,,,,,,,,,,,,None,425.83533363499737,None,,,,,,,,,,,,,,,,,,,,,,,,,,,,,,,,425.0356495199958,None,425.0356495199958,None,left,1,0.7979813629935961,425.0356495199958,None,,,,,,,,,,,,,,,,,3,26,m,2021_Apr_09_1744,ldt_en_hi,2021.1.3,1308.2813157965136,
,,,,,,,,,,,,सुंदरता,beast,right,6,,,,,,,,,,,,,0,66,66,5,,,,,,,,,,,,,,,,,None,427.0233980129997,None,,,,,,,,,,,,,,,,,,,,,,,,,,,,,,,,426.3392133140005,None,426.3392133140005,None,right,1,0.6825296829920262,426.3392133140005,None,,,,,,,,,,,,,,,,,3,26,m,2021_Apr_09_1744,ldt_en_hi,2021.1.3,1308.2813157965136,
,,,,,,,,,,,,गहा,chulk,left,8,,,,,,,,,,,,,0,67,67,56,,,,,,,,,,,,,,,,,None,428.19881081000494,None,,,,,,,,,,,,,,,,,,,,,,,,,,,,,,,,427.5275736830081,None,427.5275736830081,None,left,1,0.6696115599916084,427.5275736830081,None,,,,,,,,,,,,,,,,,3,26,m,2021_Apr_09_1744,ldt_en_hi,2021.1.3,1308.2813157965136,
,,,,,,,,,,,,फूल,suggeyf,left,10,,,,,,,,,,,,,0,68,68,53,,,,,,,,,,,,,,,,,None,429.5847733200062,None,,,,,,,,,,,,,,,,,,,,,,,,,,,,,,,,428.7030801380024,None,428.7030801380024,None,left,1,0.8800482199876569,428.7030801380024,None,,,,,,,,,,,,,,,,,3,26,m,2021_Apr_09_1744,ldt_en_hi,2021.1.3,1308.2813157965136,
,,,,,,,,,,,,बाइन,atnton,left,8,,,,,,,,,,,,,0,69,69,61,,,,,,,,,,,,,,,,,None,430.9836695029953,None,,,,,,,,,,,,,,,,,,,,,,,,,,,,,,,,430.1007821999956,None,430.1007821999956,None,left,1,0.8810372340085451,430.1007821999956,None,,,,,,,,,,,,,,,,,3,26,m,2021_Apr_09_1744,ldt_en_hi,2021.1.3,1308.2813157965136,
,,,,,,,,,,,,गेंद,bat,right,6,,,,,,,,,,,,,0,70,70,4,,,,,,,,,,,,,,,,,None,432.737955745004,None,,,,,,,,,,,,,,,,,,,,,,,,,,,,,,,,431.4877264990064,None,431.4877264990064,None,right,1,1.248588064001524,431.4877264990064,None,,,,,,,,,,,,,,,,,3,26,m,2021_Apr_09_1744,ldt_en_hi,2021.1.3,1308.2813157965136,
,,,,,,,,,,,,आतंकवादी,bomb,right,6,,,,,,,,,,,,,0,71,71,7,,,,,,,,,,,,,,,,,None,434.1901033699978,None,,,,,,,,,,,,,,,,,,,,,,,,,,,,,,,,433.2418584459956,None,433.2418584459956,None,right,1,0.9465994909987785,433.2418584459956,None,,,,,,,,,,,,,,,,,3,26,m,2021_Apr_09_1744,ldt_en_hi,2021.1.3,1308.2813157965136,
,,,,,,,,,,,,गहना,diamond,right,6,,,,,,,,,,,,,0,72,72,20,,,,,,,,,,,,,,,,,None,436.2025597000029,None,,,,,,,,,,,,,,,,,,,,,,,,,,,,,,,,434.69411994700204,None,434.69411994700204,None,right,1,1.5067843299912056,434.69411994700204,None,,,,,,,,,,,,,,,,,3,26,m,2021_Apr_09_1744,ldt_en_hi,2021.1.3,1308.2813157965136,
,,,,,,,,,,,,भावना,employer,right,7,,,,,,,,,,,,,0,73,73,24,,,,,,,,,,,,,,,,,None,437.37761861000035,None,,,,,,,,,,,,,,,,,,,,,,,,,,,,,,,,436.70650086599926,None,436.70650086599926,None,right,1,0.6694727689900901,436.70650086599926,None,,,,,,,,,,,,,,,,,3,26,m,2021_Apr_09_1744,ldt_en_hi,2021.1.3,1308.2813157965136,
,,,,,,,,,,,,अपरा,blackboard,left,9,,,,,,,,,,,,,0,74,74,75,,,,,,,,,,,,,,,,,None,440.3297625569976,None,,,,,,,,,,,,,,,,,,,,,,,,,,,,,,,,437.8816260290041,None,437.8816260290041,None,left,1,2.4464835609978763,437.8816260290041,None,,,,,,,,,,,,,,,,,3,26,m,2021_Apr_09_1744,ldt_en_hi,2021.1.3,1308.2813157965136,
,,,,,,,,,,,,असमल,rug,left,9,,,,,,,,,,,,,0,75,75,74,,,,,,,,,,,,,,,,,None,441.8511626510008,None,,,,,,,,,,,,,,,,,,,,,,,,,,,,,,,,440.8337016680016,None,440.8337016680016,None,left,1,1.015819302003365,440.8337016680016,None,,,,,,,,,,,,,,,,,3,26,m,2021_Apr_09_1744,ldt_en_hi,2021.1.3,1308.2813157965136,
,,,,,,,,,,,,अजमदा,tricycle,left,9,,,,,,,,,,,,,0,76,76,72,,,,,,,,,,,,,,,,,None,443.0586646199954,None,,,,,,,,,,,,,,,,,,,,,,,,,,,,,,,,442.3555289030046,None,442.3555289030046,None,left,1,0.7014977719954913,442.3555289030046,None,,,,,,,,,,,,,,,,,3,26,m,2021_Apr_09_1744,ldt_en_hi,2021.1.3,1308.2813157965136,
,,,,,,,,,,,,बहस,blaokbonvd,left,10,,,,,,,,,,,,,0,77,77,45,,,,,,,,,,,,,,,,,None,444.86665381600324,None,,,,,,,,,,,,,,,,,,,,,,,,,,,,,,,,443.56257350700616,None,443.56257350700616,None,left,1,1.302444671993726,443.56257350700616,None,,,,,,,,,,,,,,,,,3,26,m,2021_Apr_09_1744,ldt_en_hi,2021.1.3,1308.2813157965136,
,,,,,,,,,,,,संट,kitchen,left,9,,,,,,,,,,,,,0,78,78,76,,,,,,,,,,,,,,,,,None,447.9240845400054,None,,,,,,,,,,,,,,,,,,,,,,,,,,,,,,,,445.370855073008,None,445.370855073008,None,right,0,2.551567543996498,445.370855073008,None,,,,,,,,,,,,,,,,,3,26,m,2021_Apr_09_1744,ldt_en_hi,2021.1.3,1308.2813157965136,
,,,,,,,,,,,,टराव,lobster,left,9,,,,,,,,,,,,,0,79,79,78,,,,,,,,,,,,,,,,,None,449.10923903499497,None,,,,,,,,,,,,,,,,,,,,,,,,,,,,,,,,448.4284825390059,None,448.4284825390059,None,left,1,0.6790769859944703,448.4284825390059,None,,,,,,,,,,,,,,,,,3,26,m,2021_Apr_09_1744,ldt_en_hi,2021.1.3,1308.2813157965136,
,,,,,,,,,,,,अजमदा,tricycle,left,9,,,,,,,,,,,,,1,0,80,72,,,,,,,,,,,,,,,,,None,450.12844517600024,None,,,,,,,,,,,,,,,,,,,,,,,,,,,,,,,,449.6136249840056,None,449.6136249840056,None,left,1,0.5131876969971927,449.6136249840056,None,,,,,,,,,,,,,,,,,3,26,m,2021_Apr_09_1744,ldt_en_hi,2021.1.3,1308.2813157965136,
,,,,,,,,,,,,अभिनय,calm,right,7,,,,,,,,,,,,,1,1,81,35,,,,,,,,,,,,,,,,,None,451.1738345670019,None,,,,,,,,,,,,,,,,,,,,,,,,,,,,,,,,450.6324190269952,None,450.6324190269952,None,left,0,0.5397794409946073,450.6324190269952,None,,,,,,,,,,,,,,,,,3,26,m,2021_Apr_09_1744,ldt_en_hi,2021.1.3,1308.2813157965136,
,,,,,,,,,,,,कोमल,cure,right,7,,,,,,,,,,,,,1,2,82,34,,,,,,,,,,,,,,,,,None,452.49355848699633,None,,,,,,,,,,,,,,,,,,,,,,,,,,,,,,,,451.6783224300016,None,451.6783224300016,None,right,1,0.8136005379928974,451.6783224300016,None,,,,,,,,,,,,,,,,,3,26,m,2021_Apr_09_1744,ldt_en_hi,2021.1.3,1308.2813157965136,
,,,,,,,,,,,,मछली,ucter,left,10,,,,,,,,,,,,,1,3,83,52,,,,,,,,,,,,,,,,,None,453.82007658200746,None,,,,,,,,,,,,,,,,,,,,,,,,,,,,,,,,452.9974836580077,None,452.9974836580077,None,left,1,0.8209358559979592,452.9974836580077,None,,,,,,,,,,,,,,,,,3,26,m,2021_Apr_09_1744,ldt_en_hi,2021.1.3,1308.2813157965136,
,,,,,,,,,,,,संट,kitchen,left,9,,,,,,,,,,,,,1,4,84,76,,,,,,,,,,,,,,,,,None,455.18544416999794,None,,,,,,,,,,,,,,,,,,,,,,,,,,,,,,,,454.32420419200207,None,454.32420419200207,None,right,0,0.8595454540045466,454.32420419200207,None,,,,,,,,,,,,,,,,,3,26,m,2021_Apr_09_1744,ldt_en_hi,2021.1.3,1308.2813157965136,
,,,,,,,,,,,,भीड़,crowd,right,6,,,,,,,,,,,,,1,5,85,17,,,,,,,,,,,,,,,,,None,457.2459948500036,None,,,,,,,,,,,,,,,,,,,,,,,,,,,,,,,,455.6897804750042,None,455.6897804750042,None,right,1,1.5545507579954574,455.6897804750042,None,,,,,,,,,,,,,,,,,3,26,m,2021_Apr_09_1744,ldt_en_hi,2021.1.3,1308.2813157965136,
,,,,,,,,,,,,खेती,dollars,right,7,,,,,,,,,,,,,1,6,86,21,,,,,,,,,,,,,,,,,None,458.5242097270093,None,,,,,,,,,,,,,,,,,,,,,,,,,,,,,,,,457.7503586800012,None,457.7503586800012,None,right,1,0.7722017089981819,457.7503586800012,None,,,,,,,,,,,,,,,,,3,26,m,2021_Apr_09_1744,ldt_en_hi,2021.1.3,1308.2813157965136,
,,,,,,,,,,,,मगरम,hodker,left,8,,,,,,,,,,,,,1,7,87,54,,,,,,,,,,,,,,,,,None,459.7228914879961,None,,,,,,,,,,,,,,,,,,,,,,,,,,,,,,,,459.0302436990023,None,459.0302436990023,None,left,1,0.6907481030066265,459.0302436990023,None,,,,,,,,,,,,,,,,,3,26,m,2021_Apr_09_1744,ldt_en_hi,2021.1.3,1308.2813157965136,
,,,,,,,,,,,,जापान,cheat,right,7,,,,,,,,,,,,,1,8,88,22,,,,,,,,,,,,,,,,,None,461.0938276829984,None,,,,,,,,,,,,,,,,,,,,,,,,,,,,,,,,460.22667552200437,None,460.22667552200437,None,right,1,0.865516480000224,460.22667552200437,None,,,,,,,,,,,,,,,,,3,26,m,2021_Apr_09_1744,ldt_en_hi,2021.1.3,1308.2813157965136,
,,,,,,,,,,,,सावधान,caklqblower,left,10,,,,,,,,,,,,,1,9,89,44,,,,,,,,,,,,,,,,,None,462.4768712250079,None,,,,,,,,,,,,,,,,,,,,,,,,,,,,,,,,461.59832084299705,None,461.59832084299705,None,left,1,0.8769131989974994,461.59832084299705,None,,,,,,,,,,,,,,,,,3,26,m,2021_Apr_09_1744,ldt_en_hi,2021.1.3,1308.2813157965136,
,,,,,,,,,,,,परावान,octopus,left,9,,,,,,,,,,,,,1,10,90,69,,,,,,,,,,,,,,,,,None,463.9604015460063,None,,,,,,,,,,,,,,,,,,,,,,,,,,,,,,,,462.98070983600337,None,462.98070983600337,None,left,1,0.9780464259965811,462.98070983600337,None,,,,,,,,,,,,,,,,,3,26,m,2021_Apr_09_1744,ldt_en_hi,2021.1.3,1308.2813157965136,
,,,,,,,,,,,,साल,age,right,6,,,,,,,,,,,,,1,11,91,0,,,,,,,,,,,,,,,,,None,465.1180257560045,None,,,,,,,,,,,,,,,,,,,,,,,,,,,,,,,,464.4644285969989,None,464.4644285969989,None,right,1,0.6519535090046702,464.4644285969989,None,,,,,,,,,,,,,,,,,3,26,m,2021_Apr_09_1744,ldt_en_hi,2021.1.3,1308.2813157965136,
,,,,,,,,,,,,सुंदरता,beast,right,6,,,,,,,,,,,,,1,12,92,5,,,,,,,,,,,,,,,,,None,466.2704148930061,None,,,,,,,,,,,,,,,,,,,,,,,,,,,,,,,,465.62218449600914,None,465.62218449600914,None,right,1,0.6465305159945274,465.62218449600914,None,,,,,,,,,,,,,,,,,3,26,m,2021_Apr_09_1744,ldt_en_hi,2021.1.3,1308.2813157965136,
,,,,,,,,,,,,असमल,beaufifsl,left,8,,,,,,,,,,,,,1,13,93,66,,,,,,,,,,,,,,,,,None,467.62529202700534,None,,,,,,,,,,,,,,,,,,,,,,,,,,,,,,,,466.7748645380052,None,466.7748645380052,None,left,1,0.8487912299897289,466.7748645380052,None,,,,,,,,,,,,,,,,,3,26,m,2021_Apr_09_1744,ldt_en_hi,2021.1.3,1308.2813157965136,
,,,,,,,,,,,,विमान,decision,right,7,,,,,,,,,,,,,1,14,94,31,,,,,,,,,,,,,,,,,None,468.8503542050021,None,,,,,,,,,,,,,,,,,,,,,,,,,,,,,,,,468.12974593300896,None,468.12974593300896,None,left,0,0.7189411799918162,468.12974593300896,None,,,,,,,,,,,,,,,,,3,26,m,2021_Apr_09_1744,ldt_en_hi,2021.1.3,1308.2813157965136,
,,,,,,,,,,,,भगवान,temple,right,6,,,,,,,,,,,,,1,15,95,15,,,,,,,,,,,,,,,,,None,469.93792272300925,None,,,,,,,,,,,,,,,,,,,,,,,,,,,,,,,,469.35446759400656,None,469.35446759400656,None,right,1,0.5818172479921486,469.35446759400656,None,,,,,,,,,,,,,,,,,3,26,m,2021_Apr_09_1744,ldt_en_hi,2021.1.3,1308.2813157965136,
,,,,,,,,,,,,नल,ltbster,left,10,,,,,,,,,,,,,1,16,96,47,,,,,,,,,,,,,,,,,None,471.23028740599693,None,,,,,,,,,,,,,,,,,,,,,,,,,,,,,,,,470.4421916430001,None,470.4421916430001,None,left,1,0.786458840011619,470.4421916430001,None,,,,,,,,,,,,,,,,,3,26,m,2021_Apr_09_1744,ldt_en_hi,2021.1.3,1308.2813157965136,
,,,,,,,,,,,,गुफा,perigrm,left,10,,,,,,,,,,,,,1,17,97,51,,,,,,,,,,,,,,,,,None,473.46003843400104,None,,,,,,,,,,,,,,,,,,,,,,,,,,,,,,,,471.7341940970073,None,471.7341940970073,None,right,0,1.7241855030006263,471.7341940970073,None,,,,,,,,,,,,,,,,,3,26,m,2021_Apr_09_1744,ldt_en_hi,2021.1.3,1308.2813157965136,
,,,,,,,,,,,,अजमदा,uttac,left,8,,,,,,,,,,,,,1,18,98,62,,,,,,,,,,,,,,,,,None,474.63040703799925,None,,,,,,,,,,,,,,,,,,,,,,,,,,,,,,,,473.96404004099895,None,473.96404004099895,None,left,1,0.6647242420003749,473.96404004099895,None,,,,,,,,,,,,,,,,,3,26,m,2021_Apr_09_1744,ldt_en_hi,2021.1.3,1308.2813157965136,
,,,,,,,,,,,,सलाह,mabapine,left,10,,,,,,,,,,,,,1,19,99,42,,,,,,,,,,,,,,,,,None,476.20537296900875,None,,,,,,,,,,,,,,,,,,,,,,,,,,,,,,,,475.1346906749968,None,475.1346906749968,None,left,1,1.0690378709987272,475.1346906749968,None,,,,,,,,,,,,,,,,,3,26,m,2021_Apr_09_1744,ldt_en_hi,2021.1.3,1308.2813157965136,
,,,,,,,,,,,,बहस,blaokbonvd,left,10,,,,,,,,,,,,,1,20,100,45,,,,,,,,,,,,,,,,,None,477.6401884340012,None,,,,,,,,,,,,,,,,,,,,,,,,,,,,,,,,476.70957447300316,None,476.70957447300316,None,left,1,0.9289569620013935,476.70957447300316,None,,,,,,,,,,,,,,,,,3,26,m,2021_Apr_09_1744,ldt_en_hi,2021.1.3,1308.2813157965136,
,,,,,,,,,,,,रात,day,right,6,,,,,,,,,,,,,1,21,101,19,,,,,,,,,,,,,,,,,None,478.7513710820058,None,,,,,,,,,,,,,,,,,,,,,,,,,,,,,,,,478.14486090700666,None,478.14486090700666,None,right,1,0.6048107419919688,478.14486090700666,None,,,,,,,,,,,,,,,,,3,26,m,2021_Apr_09_1744,ldt_en_hi,2021.1.3,1308.2813157965136,
,,,,,,,,,,,,गाड़ी,auto,right,6,,,,,,,,,,,,,1,22,102,2,,,,,,,,,,,,,,,,,None,479.87088919599773,None,,,,,,,,,,,,,,,,,,,,,,,,,,,,,,,,479.25589649399626,None,479.25589649399626,None,right,1,0.6131262420094572,479.25589649399626,None,,,,,,,,,,,,,,,,,3,26,m,2021_Apr_09_1744,ldt_en_hi,2021.1.3,1308.2813157965136,
,,,,,,,,,,,,आतंकवादी,bomb,right,6,,,,,,,,,,,,,1,23,103,7,,,,,,,,,,,,,,,,,None,480.9036535759951,None,,,,,,,,,,,,,,,,,,,,,,,,,,,,,,,,480.37529948299925,None,480.37529948299925,None,right,1,0.5267010450043017,480.37529948299925,None,,,,,,,,,,,,,,,,,3,26,m,2021_Apr_09_1744,ldt_en_hi,2021.1.3,1308.2813157965136,
,,,,,,,,,,,,भावना,employer,right,7,,,,,,,,,,,,,1,24,104,24,,,,,,,,,,,,,,,,,None,482.00790701400547,None,,,,,,,,,,,,,,,,,,,,,,,,,,,,,,,,481.4081249459996,None,481.4081249459996,None,right,1,0.5981284059962491,481.4081249459996,None,,,,,,,,,,,,,,,,,3,26,m,2021_Apr_09_1744,ldt_en_hi,2021.1.3,1308.2813157965136,
,,,,,,,,,,,,परावान,valuable,left,9,,,,,,,,,,,,,1,25,105,79,,,,,,,,,,,,,,,,,None,483.2131344320078,None,,,,,,,,,,,,,,,,,,,,,,,,,,,,,,,,482.51189686599537,None,482.51189686599537,None,left,1,0.6996001020015683,482.51189686599537,None,,,,,,,,,,,,,,,,,3,26,m,2021_Apr_09_1744,ldt_en_hi,2021.1.3,1308.2813157965136,
,,,,,,,,,,,,लड़की,boy,right,6,,,,,,,,,,,,,1,26,106,10,,,,,,,,,,,,,,,,,None,484.2048344180075,None,,,,,,,,,,,,,,,,,,,,,,,,,,,,,,,,483.71716561900394,None,483.71716561900394,None,right,1,0.4860228939942317,483.71716561900394,None,,,,,,,,,,,,,,,,,3,26,m,2021_Apr_09_1744,ldt_en_hi,2021.1.3,1308.2813157965136,
,,,,,,,,,,,,नेता,area,right,7,,,,,,,,,,,,,1,27,107,32,,,,,,,,,,,,,,,,,None,485.14500620799663,None,,,,,,,,,,,,,,,,,,,,,,,,,,,,,,,,484.7087198530062,None,484.7087198530062,None,right,1,0.4346599620039342,484.7087198530062,None,,,,,,,,,,,,,,,,,3,26,m,2021_Apr_09_1744,ldt_en_hi,2021.1.3,1308.2813157965136,
,,,,,,,,,,,,गायक,dancer,right,6,,,,,,,,,,,,,1,28,108,18,,,,,,,,,,,,,,,,,None,486.4895949290076,None,,,,,,,,,,,,,,,,,,,,,,,,,,,,,,,,485.6489747519954,None,485.6489747519954,None,right,1,0.8389851020037895,485.6489747519954,None,,,,,,,,,,,,,,,,,3,26,m,2021_Apr_09_1744,ldt_en_hi,2021.1.3,1308.2813157965136,
,,,,,,,,,,,,खोज,expensive,right,7,,,,,,,,,,,,,1,29,109,29,,,,,,,,,,,,,,,,,None,487.6744106200058,None,,,,,,,,,,,,,,,,,,,,,,,,,,,,,,,,486.9935108630016,None,486.9935108630016,None,right,1,0.6792631819989765,486.9935108630016,None,,,,,,,,,,,,,,,,,3,26,m,2021_Apr_09_1744,ldt_en_hi,2021.1.3,1308.2813157965136,
,,,,,,,,,,,,यूोप,builde,left,8,,,,,,,,,,,,,1,30,110,55,,,,,,,,,,,,,,,,,None,489.1520436550054,None,,,,,,,,,,,,,,,,,,,,,,,,,,,,,,,,488.178377646007,None,488.178377646007,None,left,1,0.9720042539993301,488.178377646007,None,,,,,,,,,,,,,,,,,3,26,m,2021_Apr_09_1744,ldt_en_hi,2021.1.3,1308.2813157965136,
,,,,,,,,,,,,नाजु,ceok,left,8,,,,,,,,,,,,,1,31,111,58,,,,,,,,,,,,,,,,,None,490.4266094080085,None,,,,,,,,,,,,,,,,,,,,,,,,,,,,,,,,489.6557490940031,None,489.6557490940031,None,left,1,0.7692075439990731,489.6557490940031,None,,,,,,,,,,,,,,,,,3,26,m,2021_Apr_09_1744,ldt_en_hi,2021.1.3,1308.2813157965136,
,,,,,,,,,,,,फूल,suggeyf,left,10,,,,,,,,,,,,,1,32,112,53,,,,,,,,,,,,,,,,,None,491.9728557900089,None,,,,,,,,,,,,,,,,,,,,,,,,,,,,,,,,490.93084104100126,None,490.93084104100126,None,left,1,1.0403363299992634,490.93084104100126,None,,,,,,,,,,,,,,,,,3,26,m,2021_Apr_09_1744,ldt_en_hi,2021.1.3,1308.2813157965136,
,,,,,,,,,,,,मैदान,blush,right,7,,,,,,,,,,,,,1,33,113,26,,,,,,,,,,,,,,,,,None,493.30222148699977,None,,,,,,,,,,,,,,,,,,,,,,,,,,,,,,,,492.47723325200786,None,492.47723325200786,None,right,1,0.8233386440115282,492.47723325200786,None,,,,,,,,,,,,,,,,,3,26,m,2021_Apr_09_1744,ldt_en_hi,2021.1.3,1308.2813157965136,
,,,,,,,,,,,,बातचीत,busg,left,10,,,,,,,,,,,,,1,34,114,43,,,,,,,,,,,,,,,,,None,494.5230252860056,None,,,,,,,,,,,,,,,,,,,,,,,,,,,,,,,,493.8064613780007,None,493.8064613780007,None,left,1,0.7148793130036211,493.8064613780007,None,,,,,,,,,,,,,,,,,3,26,m,2021_Apr_09_1744,ldt_en_hi,2021.1.3,1308.2813157965136,
,,,,,,,,,,,,सच,copy,right,7,,,,,,,,,,,,,1,35,115,25,,,,,,,,,,,,,,,,,None,495.73247660799825,None,,,,,,,,,,,,,,,,,,,,,,,,,,,,,,,,495.0268895610061,None,495.0268895610061,None,right,1,0.7039387769909808,495.0268895610061,None,,,,,,,,,,,,,,,,,3,26,m,2021_Apr_09_1744,ldt_en_hi,2021.1.3,1308.2813157965136,
,,,,,,,,,,,,बाइन,atnton,left,8,,,,,,,,,,,,,1,36,116,61,,,,,,,,,,,,,,,,,None,497.02344508199894,None,,,,,,,,,,,,,,,,,,,,,,,,,,,,,,,,496.2368342359987,None,496.2368342359987,None,left,1,0.7846307629952207,496.2368342359987,None,,,,,,,,,,,,,,,,,3,26,m,2021_Apr_09_1744,ldt_en_hi,2021.1.3,1308.2813157965136,
,,,,,,,,,,,,जापान,china,right,6,,,,,,,,,,,,,1,37,117,14,,,,,,,,,,,,,,,,,None,498.28895157000807,None,,,,,,,,,,,,,,,,,,,,,,,,,,,,,,,,497.5284129700012,None,497.5284129700012,None,right,1,0.7588412360055372,497.5284129700012,None,,,,,,,,,,,,,,,,,3,26,m,2021_Apr_09_1744,ldt_en_hi,2021.1.3,1308.2813157965136,
,,,,,,,,,,,,वकी,averake,left,8,,,,,,,,,,,,,1,38,118,63,,,,,,,,,,,,,,,,,None,499.4619070990011,None,,,,,,,,,,,,,,,,,,,,,,,,,,,,,,,,498.79315350700927,None,498.79315350700927,None,left,1,0.6670992069994099,498.79315350700927,None,,,,,,,,,,,,,,,,,3,26,m,2021_Apr_09_1744,ldt_en_hi,2021.1.3,1308.2813157965136,
,,,,,,,,,,,,तीर,bow,right,6,,,,,,,,,,,,,1,39,119,8,,,,,,,,,,,,,,,,,None,500.5182643910084,None,,,,,,,,,,,,,,,,,,,,,,,,,,,,,,,,499.96643135900376,None,499.96643135900376,None,right,1,0.5501475280034356,499.96643135900376,None,,,,,,,,,,,,,,,,,3,26,m,2021_Apr_09_1744,ldt_en_hi,2021.1.3,1308.2813157965136,
,,,,,,,,,,,,टराव,lobster,left,9,,,,,,,,,,,,,1,40,120,78,,,,,,,,,,,,,,,,,None,501.83218776399735,None,,,,,,,,,,,,,,,,,,,,,,,,,,,,,,,,501.0226777540083,None,501.0226777540083,None,left,1,0.8077947989950189,501.0226777540083,None,,,,,,,,,,,,,,,,,3,26,m,2021_Apr_09_1744,ldt_en_hi,2021.1.3,1308.2813157965136,
,,,,,,,,,,,,काम,imhge,left,10,,,,,,,,,,,,,1,41,121,40,,,,,,,,,,,,,,,,,None,503.2342611220083,None,,,,,,,,,,,,,,,,,,,,,,,,,,,,,,,,502.33688480099954,None,502.33688480099954,None,left,1,0.8957245240017073,502.33688480099954,None,,,,,,,,,,,,,,,,,3,26,m,2021_Apr_09_1744,ldt_en_hi,2021.1.3,1308.2813157965136,
,,,,,,,,,,,,अपरा,blackboard,left,9,,,,,,,,,,,,,1,42,122,75,,,,,,,,,,,,,,,,,None,504.9447884429974,None,,,,,,,,,,,,,,,,,,,,,,,,,,,,,,,,503.73893409600714,None,503.73893409600714,None,left,1,1.2042219010036206,503.73893409600714,None,,,,,,,,,,,,,,,,,3,26,m,2021_Apr_09_1744,ldt_en_hi,2021.1.3,1308.2813157965136,
,,,,,,,,,,,,गेंद,bat,right,6,,,,,,,,,,,,,1,43,123,4,,,,,,,,,,,,,,,,,None,506.0308471760072,None,,,,,,,,,,,,,,,,,,,,,,,,,,,,,,,,505.4492604179977,None,505.4492604179977,None,right,1,0.5799066579929786,505.4492604179977,None,,,,,,,,,,,,,,,,,3,26,m,2021_Apr_09_1744,ldt_en_hi,2021.1.3,1308.2813157965136,
,,,,,,,,,,,,मेंढक,doe,right,7,,,,,,,,,,,,,1,44,124,36,,,,,,,,,,,,,,,,,None,507.0614178620017,None,,,,,,,,,,,,,,,,,,,,,,,,,,,,,,,,506.53498985699844,None,506.53498985699844,None,right,1,0.5247559260023991,506.53498985699844,None,,,,,,,,,,,,,,,,,3,26,m,2021_Apr_09_1744,ldt_en_hi,2021.1.3,1308.2813157965136,
,,,,,,,,,,,,गाय,valuabzr,left,10,,,,,,,,,,,,,1,45,125,48,,,,,,,,,,,,,,,,,None,508.5983220490016,None,,,,,,,,,,,,,,,,,,,,,,,,,,,,,,,,507.5658087990014,None,507.5658087990014,None,left,1,1.030866953995428,507.5658087990014,None,,,,,,,,,,,,,,,,,3,26,m,2021_Apr_09_1744,ldt_en_hi,2021.1.3,1308.2813157965136,
,,,,,,,,,,,,हानि,deaf,right,7,,,,,,,,,,,,,1,46,126,39,,,,,,,,,,,,,,,,,None,509.69303914399643,None,,,,,,,,,,,,,,,,,,,,,,,,,,,,,,,,509.1022731260018,None,509.1022731260018,None,left,0,0.5890762850031024,509.1022731260018,None,,,,,,,,,,,,,,,,,3,26,m,2021_Apr_09_1744,ldt_en_hi,2021.1.3,1308.2813157965136,
,,,,,,,,,,,,पागल,crazy,right,6,,,,,,,,,,,,,1,47,127,16,,,,,,,,,,,,,,,,,None,510.87512793300266,None,,,,,,,,,,,,,,,,,,,,,,,,,,,,,,,,510.1977503710077,None,510.1977503710077,None,right,1,0.6756929030088941,510.1977503710077,None,,,,,,,,,,,,,,,,,3,26,m,2021_Apr_09_1744,ldt_en_hi,2021.1.3,1308.2813157965136,
,,,,,,,,,,,,आतंक,average,right,7,,,,,,,,,,,,,1,48,128,23,,,,,,,,,,,,,,,,,None,512.1854090630077,None,,,,,,,,,,,,,,,,,,,,,,,,,,,,,,,,511.37905473700084,None,511.37905473700084,None,right,1,0.804479860002175,511.37905473700084,None,,,,,,,,,,,,,,,,,3,26,m,2021_Apr_09_1744,ldt_en_hi,2021.1.3,1308.2813157965136,
,,,,,,,,,,,,सिपाही,empty,right,7,,,,,,,,,,,,,1,49,129,27,,,,,,,,,,,,,,,,,None,513.3960044359992,None,,,,,,,,,,,,,,,,,,,,,,,,,,,,,,,,512.6901401149953,None,512.6901401149953,None,left,0,0.7042041550012073,512.6901401149953,None,,,,,,,,,,,,,,,,,3,26,m,2021_Apr_09_1744,ldt_en_hi,2021.1.3,1308.2813157965136,
,,,,,,,,,,,,केला,diary,right,7,,,,,,,,,,,,,1,50,130,37,,,,,,,,,,,,,,,,,None,515.0178025140049,None,,,,,,,,,,,,,,,,,,,,,,,,,,,,,,,,513.9004095690034,None,513.9004095690034,None,right,1,1.1157469930039952,513.9004095690034,None,,,,,,,,,,,,,,,,,3,26,m,2021_Apr_09_1744,ldt_en_hi,2021.1.3,1308.2813157965136,
,,,,,,,,,,,,केल,fgor,left,8,,,,,,,,,,,,,1,51,131,64,,,,,,,,,,,,,,,,,None,516.2909793889994,None,,,,,,,,,,,,,,,,,,,,,,,,,,,,,,,,515.5224500909972,None,515.5224500909972,None,left,1,0.7668423040013295,515.5224500909972,None,,,,,,,,,,,,,,,,,3,26,m,2021_Apr_09_1744,ldt_en_hi,2021.1.3,1308.2813157965136,
,,,,,,,,,,,,लड़ाकू,boxer,right,6,,,,,,,,,,,,,1,52,132,9,,,,,,,,,,,,,,,,,None,517.7404412000033,None,,,,,,,,,,,,,,,,,,,,,,,,,,,,,,,,516.7951098580088,None,516.7951098580088,None,right,1,0.9436895859980723,516.7951098580088,None,,,,,,,,,,,,,,,,,3,26,m,2021_Apr_09_1744,ldt_en_hi,2021.1.3,1308.2813157965136,
,,,,,,,,,,,,असमल,rug,left,9,,,,,,,,,,,,,1,53,133,74,,,,,,,,,,,,,,,,,None,518.8574524819996,None,,,,,,,,,,,,,,,,,,,,,,,,,,,,,,,,518.2449597300001,None,518.2449597300001,None,left,1,0.6108041440020315,518.2449597300001,None,,,,,,,,,,,,,,,,,3,26,m,2021_Apr_09_1744,ldt_en_hi,2021.1.3,1308.2813157965136,
,,,,,,,,,,,,अभिनय,disbhvmeve,left,10,,,,,,,,,,,,,1,54,134,41,,,,,,,,,,,,,,,,,None,520.0387336270069,None,,,,,,,,,,,,,,,,,,,,,,,,,,,,,,,,519.3617495299986,None,519.3617495299986,None,left,1,0.6751696179999271,519.3617495299986,None,,,,,,,,,,,,,,,,,3,26,m,2021_Apr_09_1744,ldt_en_hi,2021.1.3,1308.2813157965136,
,,,,,,,,,,,,वन,chaos,right,7,,,,,,,,,,,,,1,55,135,33,,,,,,,,,,,,,,,,,None,521.479871115007,None,,,,,,,,,,,,,,,,,,,,,,,,,,,,,,,,520.5433908400009,None,520.5433908400009,None,right,1,0.9348045439983252,520.5433908400009,None,,,,,,,,,,,,,,,,,3,26,m,2021_Apr_09_1744,ldt_en_hi,2021.1.3,1308.2813157965136,
,,,,,,,,,,,,पतल,dival,left,8,,,,,,,,,,,,,1,56,136,60,,,,,,,,,,,,,,,,,None,522.740348930005,None,,,,,,,,,,,,,,,,,,,,,,,,,,,,,,,,521.983774459004,None,521.983774459004,None,left,1,0.7547426370001631,521.983774459004,None,,,,,,,,,,,,,,,,,3,26,m,2021_Apr_09_1744,ldt_en_hi,2021.1.3,1308.2813157965136,
,,,,,,,,,,,,सावधान,capmpiwity,left,10,,,,,,,,,,,,,1,57,137,50,,,,,,,,,,,,,,,,,None,524.0358433070069,None,,,,,,,,,,,,,,,,,,,,,,,,,,,,,,,,523.244940161996,None,523.244940161996,None,left,1,0.7891930010082433,523.244940161996,None,,,,,,,,,,,,,,,,,3,26,m,2021_Apr_09_1744,ldt_en_hi,2021.1.3,1308.2813157965136,
,,,,,,,,,,,,कंबल,poldcemps,left,10,,,,,,,,,,,,,1,58,138,46,,,,,,,,,,,,,,,,,None,525.614970073002,None,,,,,,,,,,,,,,,,,,,,,,,,,,,,,,,,524.5400389730057,None,524.5400389730057,None,left,1,1.073233896997408,524.5400389730057,None,,,,,,,,,,,,,,,,,3,26,m,2021_Apr_09_1744,ldt_en_hi,2021.1.3,1308.2813157965136,
,,,,,,,,,,,,लड़की,baby,right,6,,,,,,,,,,,,,1,59,139,3,,,,,,,,,,,,,,,,,None,526.888145977995,None,,,,,,,,,,,,,,,,,,,,,,,,,,,,,,,,526.119499937995,None,526.119499937995,None,right,1,0.7669289710029261,526.119499937995,None,,,,,,,,,,,,,,,,,3,26,m,2021_Apr_09_1744,ldt_en_hi,2021.1.3,1308.2813157965136,
,,,,,,,,,,,,घर,blow,right,7,,,,,,,,,,,,,1,60,140,28,,,,,,,,,,,,,,,,,None,528.3325095330074,None,,,,,,,,,,,,,,,,,,,,,,,,,,,,,,,,527.3938491599984,None,527.3938491599984,None,right,1,0.936802024996723,527.3938491599984,None,,,,,,,,,,,,,,,,,3,26,m,2021_Apr_09_1744,ldt_en_hi,2021.1.3,1308.2813157965136,
,,,,,,,,,,,,शहनाई,decay,right,7,,,,,,,,,,,,,1,61,141,30,,,,,,,,,,,,,,,,,None,529.8790462370089,None,,,,,,,,,,,,,,,,,,,,,,,,,,,,,,,,528.8368897320033,None,528.8368897320033,None,right,1,1.040259536006488,528.8368897320033,None,,,,,,,,,,,,,,,,,3,26,m,2021_Apr_09_1744,ldt_en_hi,2021.1.3,1308.2813157965136,
,,,,,,,,,,,,यूोप,mustache,left,9,,,,,,,,,,,,,1,62,142,71,,,,,,,,,,,,,,,,,None,531.0606243329967,None,,,,,,,,,,,,,,,,,,,,,,,,,,,,,,,,530.3831622090074,None,530.3831622090074,None,left,1,0.6755099199945107,530.3831622090074,None,,,,,,,,,,,,,,,,,3,26,m,2021_Apr_09_1744,ldt_en_hi,2021.1.3,1308.2813157965136,
,,,,,,,,,,,,अनुबध,leab,left,8,,,,,,,,,,,,,1,63,143,59,,,,,,,,,,,,,,,,,None,532.3835150890081,None,,,,,,,,,,,,,,,,,,,,,,,,,,,,,,,,531.5660767619993,None,531.5660767619993,None,left,1,0.8157919569930527,531.5660767619993,None,,,,,,,,,,,,,,,,,3,26,m,2021_Apr_09_1744,ldt_en_hi,2021.1.3,1308.2813157965136,
,,,,,,,,,,,,जोकर,eyes,right,7,,,,,,,,,,,,,1,64,144,38,,,,,,,,,,,,,,,,,None,533.6098910160072,None,,,,,,,,,,,,,,,,,,,,,,,,,,,,,,,,532.887432442003,None,532.887432442003,None,right,1,0.7205443840066437,532.887432442003,None,,,,,,,,,,,,,,,,,3,26,m,2021_Apr_09_1744,ldt_en_hi,2021.1.3,1308.2813157965136,
,,,,,,,,,,,,संट,subtraction,left,9,,,,,,,,,,,,,1,65,145,67,,,,,,,,,,,,,,,,,None,534.9677376690088,None,,,,,,,,,,,,,,,,,,,,,,,,,,,,,,,,534.1141604330041,None,534.1141604330041,None,right,0,0.8519198769936338,534.1141604330041,None,,,,,,,,,,,,,,,,,3,26,m,2021_Apr_09_1744,ldt_en_hi,2021.1.3,1308.2813157965136,
