w_word1,w_word2,w_corrAns,w_category,word1,word2,corrAns,category,w_hword1,w_hword2,w_hcorrAns,w_hcategory,hword1,hword2,hcorrAns,hcategory,enwarmuptrials.thisRepN,enwarmuptrials.thisTrialN,enwarmuptrials.thisN,enwarmuptrials.thisIndex,en_trials.thisRepN,en_trials.thisTrialN,en_trials.thisN,en_trials.thisIndex,hiwarmuptrials.thisRepN,hiwarmuptrials.thisTrialN,hiwarmuptrials.thisN,hiwarmuptrials.thisIndex,hi_trials.thisRepN,hi_trials.thisTrialN,hi_trials.thisN,hi_trials.thisIndex,eninstrstim.started,eninstrstim.stopped,enkbinstr.keys,enkbinstr.corr,enkbinstr.rt,enkbinstr.started,enkbinstr.stopped,enwarmupw1.started,enwarmupw1.stopped,enwarmupw2.started,enwarmupw2.stopped,enwarmupkb.keys,enwarmupkb.corr,enwarmupkb.rt,enwarmupkb.started,enwarmupkb.stopped,restresp.keys,restresp.started,restresp.stopped,startexpprompt.started,startexpprompt.stopped,startexpkbresp.keys,startexpkbresp.rt,startexpkbresp.started,startexpkbresp.stopped,entrialw1.started,entrialw1.stopped,entrialw2.started,entrialw2.stopped,enkbresp.keys,enkbresp.corr,enkbresp.rt,enkbresp.started,enkbresp.stopped,hiinstrstim.started,hiinstrstim.stopped,hikbinstr.keys,hikbinstr.corr,hikbinstr.rt,hikbinstr.started,hikbinstr.stopped,hiwarmupw1.started,hiwarmupw1.stopped,hiwarmupw2.started,hiwarmupw2.stopped,hiwarmupkb.keys,hiwarmupkb.corr,hiwarmupkb.rt,hiwarmupkb.started,hiwarmupkb.stopped,hitrialw1.started,hitrialw1.stopped,hitrialw2.started,hitrialw2.stopped,hikbresp.keys,hikbresp.corr,hikbresp.rt,hikbresp.started,hikbresp.stopped,restresp.rt,hiskill.text,hiskill.started,hiskill.stopped,hirespskill.keys,hirespskill.rt,hirespskill.started,hirespskill.stopped,enskill_2.text,enskill_2.started,enskill_2.stopped,enrespskill_2.keys,enrespskill_2.rt,enrespskill_2.started,enrespskill_2.stopped,thankstext.started,thankstext.stopped,participant,age,gender,date,expName,psychopyVersion,frameRate,
,,,,,,,,,,,,,,,,,,,,,,,,,,,,,,,,97.38779060600791,None,right,0,22.19429401200614,97.38779060600791,None,,,,,,,,,,,,,,,,,,,,,,,,,,,,,,,,,,,,,,,,,,,,,,,,,,,,,,,,,,,,,,,,,,,,,,4,30,M,2021_Apr_09_1755,ldt_en_hi,2021.1.3,1021.5750509267291,
whistle,england,right,2,,,,,,,,,,,,,0,0,0,0,,,,,,,,,,,,,,,,,,,,119.59491681400687,None,119.59491681400687,None,right,1,9.412840234013856,119.59491681400687,None,None,129.00953328701144,None,,,,,,,,,,,,,,,,,,,,,,,,,,,,,,,,,,,,,,,,,,,,,,,,,,,,,,,,,,4,30,M,2021_Apr_09_1755,ldt_en_hi,2021.1.3,1021.5750509267291,
fite,crack,left,4,,,,,,,,,,,,,0,1,1,2,,,,,,,,,,,,,,,,,,,,129.52114688399888,None,129.52114688399888,None,right,0,3.567347815987887,129.52114688399888,None,None,133.08986684700358,None,,,,,,,,,,,,,,,,,,,,,,,,,,,,,,,,,,,,,,,,,,,,,,,,,,,,,,,,,,4,30,M,2021_Apr_09_1755,ldt_en_hi,2021.1.3,1021.5750509267291,
mick,lofy,left,3,,,,,,,,,,,,,0,2,2,4,,,,,,,,,,,,,,,,,,,,133.59313388699957,None,133.59313388699957,None,right,0,3.1841436399990926,133.59313388699957,None,None,136.77869149000617,None,,,,,,,,,,,,,,,,,,,,,,,,,,,,,,,,,,,,,,,,,,,,,,,,,,,,,,,,,,4,30,M,2021_Apr_09_1755,ldt_en_hi,2021.1.3,1021.5750509267291,
ash,ashtray,right,1,,,,,,,,,,,,,0,3,3,1,,,,,,,,,,,,,,,,,,,,137.28120589299942,None,137.28120589299942,None,right,1,1.5050762680039043,137.28120589299942,None,None,138.7876725620008,None,,,,,,,,,,,,,,,,,,,,,,,,,,,,,,,,,,,,,,,,,,,,,,,,,,,,,,,,,,4,30,M,2021_Apr_09_1755,ldt_en_hi,2021.1.3,1021.5750509267291,
sun,cepy,left,5,,,,,,,,,,,,,0,4,4,3,,,,,,,,,,,,,,,,,,,,139.29028260300402,None,139.29028260300402,None,left,1,2.8132419280009344,139.29028260300402,None,None,142.10490688300342,None,,,,,,,,,,,,,,,,,,,,,,,,,,,,,,,,,,,,,,,,,,,,,,,,,,,,,,,,,,4,30,M,2021_Apr_09_1755,ldt_en_hi,2021.1.3,1021.5750509267291,
,,,,,,,,,,,,,,,,,,,,,,,,,,,,,,,,,,,,,,,,,,,,,,,,,,,142.605822729005,None,right,5.0470723530015675,142.605822729005,None,,,,,,,,,,,,,,,,,,,,,,,,,,,,,,,,,,,,,,,,,,,,,,,,,,,,4,30,M,2021_Apr_09_1755,ldt_en_hi,2021.1.3,1021.5750509267291,
,,,,,,,,,,,,,,,,,,,,,,,,,,,,,,,,,,,,,,,,,,,,,,,,None,147.65371543400397,None,,,,,,,,,,,,,,,,,,,,,,,,,,,,,,,,,,,,,,,,,,,,,,,,,,,,,,,,,,4,30,M,2021_Apr_09_1755,ldt_en_hi,2021.1.3,1021.5750509267291,
,,,,perform,average,right,2,,,,,,,,,,,,,0,0,0,23,,,,,,,,,,,,,,,,,,,,,,,,,None,153.81770563100872,None,,,,,,,148.18483992500114,None,148.18483992500114,None,right,1,5.630917774004047,148.18483992500114,None,,,,,,,,,,,,,,,,,,,,,,,,,,,,,,,,,,,,,,,,,,,4,30,M,2021_Apr_09_1755,ldt_en_hi,2021.1.3,1021.5750509267291,
,,,,suggest,ballet,right,2,,,,,,,,,,,,,0,1,1,26,,,,,,,,,,,,,,,,,,,,,,,,,None,155.28399673700915,None,,,,,,,154.3321942800103,None,154.3321942800103,None,right,1,0.9503762029926293,154.3321942800103,None,,,,,,,,,,,,,,,,,,,,,,,,,,,,,,,,,,,,,,,,,,,4,30,M,2021_Apr_09_1755,ldt_en_hi,2021.1.3,1021.5750509267291,
,,,,mgstachi,forest,left,4,,,,,,,,,,,,,0,2,2,74,,,,,,,,,,,,,,,,,,,,,,,,,None,157.19320356500975,None,,,,,,,155.78737738000927,None,155.78737738000927,None,left,1,1.4043580569996266,155.78737738000927,None,,,,,,,,,,,,,,,,,,,,,,,,,,,,,,,,,,,,,,,,,,,4,30,M,2021_Apr_09_1755,ldt_en_hi,2021.1.3,1021.5750509267291,
,,,,uneven,dival,left,5,,,,,,,,,,,,,0,3,3,55,,,,,,,,,,,,,,,,,,,,,,,,,None,160.96999300800962,None,,,,,,,157.69655772400438,None,157.69655772400438,None,left,1,3.2719906860002084,157.69655772400438,None,,,,,,,,,,,,,,,,,,,,,,,,,,,,,,,,,,,,,,,,,,,4,30,M,2021_Apr_09_1755,ldt_en_hi,2021.1.3,1021.5750509267291,
,,,,busg,data,left,4,,,,,,,,,,,,,0,4,4,78,,,,,,,,,,,,,,,,,,,,,,,,,None,162.64898812300817,None,,,,,,,161.47276778001105,None,161.47276778001105,None,left,1,1.1747552860033466,161.47276778001105,None,,,,,,,,,,,,,,,,,,,,,,,,,,,,,,,,,,,,,,,,,,,4,30,M,2021_Apr_09_1755,ldt_en_hi,2021.1.3,1021.5750509267291,
,,,,disallow,beat,right,2,,,,,,,,,,,,,0,5,5,29,,,,,,,,,,,,,,,,,,,,,,,,,None,164.16823285901046,None,,,,,,,163.15211386700685,None,163.15211386700685,None,right,1,1.0146597209968604,163.15211386700685,None,,,,,,,,,,,,,,,,,,,,,,,,,,,,,,,,,,,,,,,,,,,4,30,M,2021_Apr_09_1755,ldt_en_hi,2021.1.3,1021.5750509267291,
,,,,cowtnet,freedom,left,4,,,,,,,,,,,,,0,6,6,69,,,,,,,,,,,,,,,,,,,,,,,,,None,166.80047618701064,None,,,,,,,164.67168585500622,None,164.67168585500622,None,left,1,2.1270591870124917,164.67168585500622,None,,,,,,,,,,,,,,,,,,,,,,,,,,,,,,,,,,,,,,,,,,,4,30,M,2021_Apr_09_1755,ldt_en_hi,2021.1.3,1021.5750509267291,
,,,,adorable,bckpwck,left,5,,,,,,,,,,,,,0,7,7,59,,,,,,,,,,,,,,,,,,,,,,,,,None,168.37033706701186,None,,,,,,,167.30361807900772,None,167.30361807900772,None,left,1,1.0652793750050478,167.30361807900772,None,,,,,,,,,,,,,,,,,,,,,,,,,,,,,,,,,,,,,,,,,,,4,30,M,2021_Apr_09_1755,ldt_en_hi,2021.1.3,1021.5750509267291,
,,,,tumor,cancer,right,1,,,,,,,,,,,,,0,8,8,14,,,,,,,,,,,,,,,,,,,,,,,,,None,169.70064976401045,None,,,,,,,168.87367884900596,None,168.87367884900596,None,right,1,0.8255179709958611,168.87367884900596,None,,,,,,,,,,,,,,,,,,,,,,,,,,,,,,,,,,,,,,,,,,,4,30,M,2021_Apr_09_1755,ldt_en_hi,2021.1.3,1021.5750509267291,
,,,,policeman,cop,right,1,,,,,,,,,,,,,0,9,9,18,,,,,,,,,,,,,,,,,,,,,,,,,None,173.49857993600017,None,,,,,,,170.20372767100343,None,170.20372767100343,None,right,1,3.293406747005065,170.20372767100343,None,,,,,,,,,,,,,,,,,,,,,,,,,,,,,,,,,,,,,,,,,,,4,30,M,2021_Apr_09_1755,ldt_en_hi,2021.1.3,1021.5750509267291,
,,,,sister,brother,right,1,,,,,,,,,,,,,0,10,10,13,,,,,,,,,,,,,,,,,,,,,,,,,None,176.8053859960055,None,,,,,,,174.0020451770106,None,174.0020451770106,None,right,1,2.801918596000178,174.0020451770106,None,,,,,,,,,,,,,,,,,,,,,,,,,,,,,,,,,,,,,,,,,,,4,30,M,2021_Apr_09_1755,ldt_en_hi,2021.1.3,1021.5750509267291,
,,,,busy,bored,right,1,,,,,,,,,,,,,0,11,11,11,,,,,,,,,,,,,,,,,,,,,,,,,None,177.95068578601058,None,,,,,,,177.30878815100004,None,177.30878815100004,None,right,1,0.6404463929939084,177.30878815100004,None,,,,,,,,,,,,,,,,,,,,,,,,,,,,,,,,,,,,,,,,,,,4,30,M,2021_Apr_09_1755,ldt_en_hi,2021.1.3,1021.5750509267291,
,,,,udvirb,prew,left,3,,,,,,,,,,,,,0,12,12,47,,,,,,,,,,,,,,,,,,,,,,,,,None,182.92350265700952,None,,,,,,,178.4539071199979,None,178.4539071199979,None,left,1,4.467874875001144,178.4539071199979,None,,,,,,,,,,,,,,,,,,,,,,,,,,,,,,,,,,,,,,,,,,,4,30,M,2021_Apr_09_1755,ldt_en_hi,2021.1.3,1021.5750509267291,
,,,,ballet,fgor,left,5,,,,,,,,,,,,,0,13,13,60,,,,,,,,,,,,,,,,,,,,,,,,,None,184.1780457910063,None,,,,,,,183.42653908100328,None,183.42653908100328,None,left,1,0.7500466680066893,183.42653908100328,None,,,,,,,,,,,,,,,,,,,,,,,,,,,,,,,,,,,,,,,,,,,4,30,M,2021_Apr_09_1755,ldt_en_hi,2021.1.3,1021.5750509267291,
,,,,ocbohus,bitch,left,4,,,,,,,,,,,,,0,14,14,72,,,,,,,,,,,,,,,,,,,,,,,,,None,185.7371873210068,None,,,,,,,184.68141792500683,None,184.68141792500683,None,left,1,1.054287845006911,184.68141792500683,None,,,,,,,,,,,,,,,,,,,,,,,,,,,,,,,,,,,,,,,,,,,4,30,M,2021_Apr_09_1755,ldt_en_hi,2021.1.3,1021.5750509267291,
,,,,kitchen,cook,right,1,,,,,,,,,,,,,0,15,15,17,,,,,,,,,,,,,,,,,,,,,,,,,None,187.01442005400895,None,,,,,,,186.24076544299896,None,186.24076544299896,None,right,1,0.771932237999863,186.24076544299896,None,,,,,,,,,,,,,,,,,,,,,,,,,,,,,,,,,,,,,,,,,,,4,30,M,2021_Apr_09_1755,ldt_en_hi,2021.1.3,1021.5750509267291,
,,,,dasewn,ufraca,left,3,,,,,,,,,,,,,0,16,16,43,,,,,,,,,,,,,,,,,,,,,,,,,None,188.56292001000838,None,,,,,,,187.51788912899792,None,187.51788912899792,None,left,1,1.0435618729970884,187.51788912899792,None,,,,,,,,,,,,,,,,,,,,,,,,,,,,,,,,,,,,,,,,,,,4,30,M,2021_Apr_09_1755,ldt_en_hi,2021.1.3,1021.5750509267291,
,,,,explanation,answer,right,1,,,,,,,,,,,,,0,17,17,3,,,,,,,,,,,,,,,,,,,,,,,,,None,190.08412409501034,None,,,,,,,189.06664341400028,None,189.06664341400028,None,right,1,1.0160000259929802,189.06664341400028,None,,,,,,,,,,,,,,,,,,,,,,,,,,,,,,,,,,,,,,,,,,,4,30,M,2021_Apr_09_1755,ldt_en_hi,2021.1.3,1021.5750509267291,
,,,,contract,bar,right,2,,,,,,,,,,,,,0,18,18,27,,,,,,,,,,,,,,,,,,,,,,,,,None,191.7211805179977,None,,,,,,,190.58762503501202,None,190.58762503501202,None,right,1,1.1320694370078854,190.58762503501202,None,,,,,,,,,,,,,,,,,,,,,,,,,,,,,,,,,,,,,,,,,,,4,30,M,2021_Apr_09_1755,ldt_en_hi,2021.1.3,1021.5750509267291,
,,,,quantity,beautiful,right,2,,,,,,,,,,,,,0,19,19,30,,,,,,,,,,,,,,,,,,,,,,,,,None,192.98596117499983,None,,,,,,,192.23574019900116,None,192.23574019900116,None,right,1,0.7487342259992147,192.23574019900116,None,,,,,,,,,,,,,,,,,,,,,,,,,,,,,,,,,,,,,,,,,,,4,30,M,2021_Apr_09_1755,ldt_en_hi,2021.1.3,1021.5750509267291,
,,,,valuable,devil,right,2,,,,,,,,,,,,,0,20,20,20,,,,,,,,,,,,,,,,,,,,,,,,,None,194.49569812600384,None,,,,,,,193.489327082003,None,193.489327082003,None,right,1,1.0048867980076466,193.489327082003,None,,,,,,,,,,,,,,,,,,,,,,,,,,,,,,,,,,,,,,,,,,,4,30,M,2021_Apr_09_1755,ldt_en_hi,2021.1.3,1021.5750509267291,
,,,,snuggle,atnton,left,5,,,,,,,,,,,,,0,21,21,56,,,,,,,,,,,,,,,,,,,,,,,,,None,195.65417966700625,None,,,,,,,194.99893958499888,None,194.99893958499888,None,left,1,0.653768926000339,194.99893958499888,None,,,,,,,,,,,,,,,,,,,,,,,,,,,,,,,,,,,,,,,,,,,4,30,M,2021_Apr_09_1755,ldt_en_hi,2021.1.3,1021.5750509267291,
,,,,antidote,averake,left,5,,,,,,,,,,,,,0,22,22,58,,,,,,,,,,,,,,,,,,,,,,,,,None,197.37278564200096,None,,,,,,,196.157809301003,None,196.157809301003,None,right,0,1.213120959000662,196.157809301003,None,,,,,,,,,,,,,,,,,,,,,,,,,,,,,,,,,,,,,,,,,,,4,30,M,2021_Apr_09_1755,ldt_en_hi,2021.1.3,1021.5750509267291,
,,,,suggeyf,biurd,left,3,,,,,,,,,,,,,0,23,23,48,,,,,,,,,,,,,,,,,,,,,,,,,None,200.0903411120089,None,,,,,,,197.87623012599943,None,197.87623012599943,None,left,1,2.212641796009848,197.87623012599943,None,,,,,,,,,,,,,,,,,,,,,,,,,,,,,,,,,,,,,,,,,,,4,30,M,2021_Apr_09_1755,ldt_en_hi,2021.1.3,1021.5750509267291,
,,,,ltbster,lecter,left,3,,,,,,,,,,,,,0,24,24,41,,,,,,,,,,,,,,,,,,,,,,,,,None,201.8912154090067,None,,,,,,,200.59345159200893,None,200.59345159200893,None,left,1,1.296003474999452,200.59345159200893,None,,,,,,,,,,,,,,,,,,,,,,,,,,,,,,,,,,,,,,,,,,,4,30,M,2021_Apr_09_1755,ldt_en_hi,2021.1.3,1021.5750509267291,
,,,,disagreement,blanket,right,2,,,,,,,,,,,,,0,25,25,36,,,,,,,,,,,,,,,,,,,,,,,,,None,203.20008823100943,None,,,,,,,202.39429134500097,None,202.39429134500097,None,right,1,0.8042753279878525,202.39429134500097,None,,,,,,,,,,,,,,,,,,,,,,,,,,,,,,,,,,,,,,,,,,,4,30,M,2021_Apr_09_1755,ldt_en_hi,2021.1.3,1021.5750509267291,
,,,,actress,actor,right,1,,,,,,,,,,,,,0,26,26,0,,,,,,,,,,,,,,,,,,,,,,,,,None,204.6376911240077,None,,,,,,,203.70366029199795,None,203.70366029199795,None,right,1,0.9323107300006086,203.70366029199795,None,,,,,,,,,,,,,,,,,,,,,,,,,,,,,,,,,,,,,,,,,,,4,30,M,2021_Apr_09_1755,ldt_en_hi,2021.1.3,1021.5750509267291,
,,,,valuabzr,additkos,left,3,,,,,,,,,,,,,0,27,27,42,,,,,,,,,,,,,,,,,,,,,,,,,None,206.03084496701194,None,,,,,,,205.14749635801127,None,205.14749635801127,None,left,1,0.8818638910015579,205.14749635801127,None,,,,,,,,,,,,,,,,,,,,,,,,,,,,,,,,,,,,,,,,,,,4,30,M,2021_Apr_09_1755,ldt_en_hi,2021.1.3,1021.5750509267291,
,,,,caklqblower,fashion,left,4,,,,,,,,,,,,,0,28,28,79,,,,,,,,,,,,,,,,,,,,,,,,,None,207.41770546601037,None,,,,,,,206.53432131301088,None,206.53432131301088,None,left,1,0.8818763279996347,206.53432131301088,None,,,,,,,,,,,,,,,,,,,,,,,,,,,,,,,,,,,,,,,,,,,4,30,M,2021_Apr_09_1755,ldt_en_hi,2021.1.3,1021.5750509267291,
,,,,bow,arrow,right,1,,,,,,,,,,,,,0,29,29,5,,,,,,,,,,,,,,,,,,,,,,,,,None,208.5597052110097,None,,,,,,,207.92072840200854,None,207.92072840200854,None,right,1,0.6372873579966836,207.92072840200854,None,,,,,,,,,,,,,,,,,,,,,,,,,,,,,,,,,,,,,,,,,,,4,30,M,2021_Apr_09_1755,ldt_en_hi,2021.1.3,1021.5750509267291,
,,,,awbxenems,belvem,left,3,,,,,,,,,,,,,0,30,30,50,,,,,,,,,,,,,,,,,,,,,,,,,None,210.49344440001005,None,,,,,,,209.06330920700566,None,209.06330920700566,None,left,1,1.4286199170019245,209.06330920700566,None,,,,,,,,,,,,,,,,,,,,,,,,,,,,,,,,,,,,,,,,,,,4,30,M,2021_Apr_09_1755,ldt_en_hi,2021.1.3,1021.5750509267291,
,,,,poldcemps,uccipt,left,3,,,,,,,,,,,,,0,31,31,40,,,,,,,,,,,,,,,,,,,,,,,,,None,212.03162997000618,None,,,,,,,210.9968322640052,None,210.9968322640052,None,left,1,1.0332715249969624,210.9968322640052,None,,,,,,,,,,,,,,,,,,,,,,,,,,,,,,,,,,,,,,,,,,,4,30,M,2021_Apr_09_1755,ldt_en_hi,2021.1.3,1021.5750509267291,
,,,,ucter,arks,left,3,,,,,,,,,,,,,0,32,32,46,,,,,,,,,,,,,,,,,,,,,,,,,None,213.34457324800314,None,,,,,,,212.53521483299846,None,212.53521483299846,None,left,1,0.8078446940053254,212.53521483299846,None,,,,,,,,,,,,,,,,,,,,,,,,,,,,,,,,,,,,,,,,,,,4,30,M,2021_Apr_09_1755,ldt_en_hi,2021.1.3,1021.5750509267291,
,,,,exdlavstion,cloth,left,4,,,,,,,,,,,,,0,33,33,71,,,,,,,,,,,,,,,,,,,,,,,,,None,214.82655155700922,None,,,,,,,213.8481027890084,None,213.8481027890084,None,left,1,0.9769276400038507,213.8481027890084,None,,,,,,,,,,,,,,,,,,,,,,,,,,,,,,,,,,,,,,,,,,,4,30,M,2021_Apr_09_1755,ldt_en_hi,2021.1.3,1021.5750509267291,
,,,,imhge,eyes,left,4,,,,,,,,,,,,,0,34,34,75,,,,,,,,,,,,,,,,,,,,,,,,,None,216.4005587290012,None,,,,,,,215.33015829900978,None,215.33015829900978,None,left,1,1.068626429012511,215.33015829900978,None,,,,,,,,,,,,,,,,,,,,,,,,,,,,,,,,,,,,,,,,,,,4,30,M,2021_Apr_09_1755,ldt_en_hi,2021.1.3,1021.5750509267291,
,,,,disbhvmeve,destroy,left,4,,,,,,,,,,,,,0,35,35,76,,,,,,,,,,,,,,,,,,,,,,,,,None,218.2577083990036,None,,,,,,,216.90390652000497,None,216.90390652000497,None,left,1,1.3522776550089475,216.90390652000497,None,,,,,,,,,,,,,,,,,,,,,,,,,,,,,,,,,,,,,,,,,,,4,30,M,2021_Apr_09_1755,ldt_en_hi,2021.1.3,1021.5750509267291,
,,,,ash,blue,right,2,,,,,,,,,,,,,0,36,36,38,,,,,,,,,,,,,,,,,,,,,,,,,None,219.74753981200047,None,,,,,,,218.76071788099944,None,218.76071788099944,None,right,1,0.9852995959954569,218.76071788099944,None,,,,,,,,,,,,,,,,,,,,,,,,,,,,,,,,,,,,,,,,,,,4,30,M,2021_Apr_09_1755,ldt_en_hi,2021.1.3,1021.5750509267291,
,,,,invent,ceok,left,5,,,,,,,,,,,,,0,37,37,53,,,,,,,,,,,,,,,,,,,,,,,,,None,220.97214802000963,None,,,,,,,220.25057934300276,None,220.25057934300276,None,left,1,0.720046935006394,220.25057934300276,None,,,,,,,,,,,,,,,,,,,,,,,,,,,,,,,,,,,,,,,,,,,4,30,M,2021_Apr_09_1755,ldt_en_hi,2021.1.3,1021.5750509267291,
,,,,capability,attic,right,2,,,,,,,,,,,,,0,38,38,22,,,,,,,,,,,,,,,,,,,,,,,,,None,223.25202228200214,None,,,,,,,221.47565884899814,None,221.47565884899814,None,right,1,1.7748382669960847,221.47565884899814,None,,,,,,,,,,,,,,,,,,,,,,,,,,,,,,,,,,,,,,,,,,,4,30,M,2021_Apr_09_1755,ldt_en_hi,2021.1.3,1021.5750509267291,
,,,,saucer,uttac,left,5,,,,,,,,,,,,,0,39,39,57,,,,,,,,,,,,,,,,,,,,,,,,,None,225.34097260600538,None,,,,,,,223.7556523719977,None,223.7556523719977,None,right,0,1.5835632209928008,223.7556523719977,None,,,,,,,,,,,,,,,,,,,,,,,,,,,,,,,,,,,,,,,,,,,4,30,M,2021_Apr_09_1755,ldt_en_hi,2021.1.3,1021.5750509267291,
,,,,magazine,book,right,1,,,,,,,,,,,,,0,40,40,10,,,,,,,,,,,,,,,,,,,,,,,,,None,226.60484825700405,None,,,,,,,225.8445146390004,None,225.8445146390004,None,right,1,0.7588230620021932,225.8445146390004,None,,,,,,,,,,,,,,,,,,,,,,,,,,,,,,,,,,,,,,,,,,,4,30,M,2021_Apr_09_1755,ldt_en_hi,2021.1.3,1021.5750509267291,
,,,,quantyta,berid,left,3,,,,,,,,,,,,,0,41,41,52,,,,,,,,,,,,,,,,,,,,,,,,,None,228.28138720300922,None,,,,,,,227.1079363200115,None,227.1079363200115,None,left,1,1.1719016860006377,227.1079363200115,None,,,,,,,,,,,,,,,,,,,,,,,,,,,,,,,,,,,,,,,,,,,4,30,M,2021_Apr_09_1755,ldt_en_hi,2021.1.3,1021.5750509267291,
,,,,harmful,cownr,left,5,,,,,,,,,,,,,0,42,42,61,,,,,,,,,,,,,,,,,,,,,,,,,None,229.67523263000476,None,,,,,,,228.78524406900397,None,228.78524406900397,None,left,1,0.8884715659951326,228.78524406900397,None,,,,,,,,,,,,,,,,,,,,,,,,,,,,,,,,,,,,,,,,,,,4,30,M,2021_Apr_09_1755,ldt_en_hi,2021.1.3,1021.5750509267291,
,,,,anteater,belt,right,2,,,,,,,,,,,,,0,43,43,33,,,,,,,,,,,,,,,,,,,,,,,,,None,231.077854217001,None,,,,,,,230.17825338400144,None,230.17825338400144,None,left,0,0.8980670640012249,230.17825338400144,None,,,,,,,,,,,,,,,,,,,,,,,,,,,,,,,,,,,,,,,,,,,4,30,M,2021_Apr_09_1755,ldt_en_hi,2021.1.3,1021.5750509267291,
,,,,tricycle,bicycle,right,1,,,,,,,,,,,,,0,44,44,9,,,,,,,,,,,,,,,,,,,,,,,,,None,232.83958171600534,None,,,,,,,231.58142680900346,None,231.58142680900346,None,left,0,1.2565990299917758,231.58142680900346,None,,,,,,,,,,,,,,,,,,,,,,,,,,,,,,,,,,,,,,,,,,,4,30,M,2021_Apr_09_1755,ldt_en_hi,2021.1.3,1021.5750509267291,
,,,,stpactin,fear,left,4,,,,,,,,,,,,,0,45,45,68,,,,,,,,,,,,,,,,,,,,,,,,,None,235.0709137560043,None,,,,,,,233.34330414500437,None,233.34330414500437,None,left,1,1.7260905089933658,233.34330414500437,None,,,,,,,,,,,,,,,,,,,,,,,,,,,,,,,,,,,,,,,,,,,4,30,M,2021_Apr_09_1755,ldt_en_hi,2021.1.3,1021.5750509267291,
,,,,data,beaufifsl,left,5,,,,,,,,,,,,,0,46,46,63,,,,,,,,,,,,,,,,,,,,,,,,,None,236.3377962890081,None,,,,,,,235.57471558600082,None,235.57471558600082,None,left,1,0.7615614459937206,235.57471558600082,None,,,,,,,,,,,,,,,,,,,,,,,,,,,,,,,,,,,,,,,,,,,4,30,M,2021_Apr_09_1755,ldt_en_hi,2021.1.3,1021.5750509267291,
,,,,disbelieve,believe,right,1,,,,,,,,,,,,,0,47,47,8,,,,,,,,,,,,,,,,,,,,,,,,,None,237.700999246008,None,,,,,,,236.84142978700402,None,236.84142978700402,None,right,1,0.8580381809879327,236.84142978700402,None,,,,,,,,,,,,,,,,,,,,,,,,,,,,,,,,,,,,,,,,,,,4,30,M,2021_Apr_09_1755,ldt_en_hi,2021.1.3,1021.5750509267291,
,,,,mute,bygknner,left,5,,,,,,,,,,,,,0,48,48,65,,,,,,,,,,,,,,,,,,,,,,,,,None,239.15977429600025,None,,,,,,,238.20481421600562,None,238.20481421600562,None,left,1,0.9534311850002268,238.20481421600562,None,,,,,,,,,,,,,,,,,,,,,,,,,,,,,,,,,,,,,,,,,,,4,30,M,2021_Apr_09_1755,ldt_en_hi,2021.1.3,1021.5750509267291,
,,,,riject,farm,left,4,,,,,,,,,,,,,0,49,49,66,,,,,,,,,,,,,,,,,,,,,,,,,None,240.60178108500259,None,,,,,,,239.67147600000317,None,239.67147600000317,None,left,1,0.9287524719984503,239.67147600000317,None,,,,,,,,,,,,,,,,,,,,,,,,,,,,,,,,,,,,,,,,,,,4,30,M,2021_Apr_09_1755,ldt_en_hi,2021.1.3,1021.5750509267291,
,,,,blackboard,chalk,right,1,,,,,,,,,,,,,0,50,50,16,,,,,,,,,,,,,,,,,,,,,,,,,None,242.65610329400806,None,,,,,,,241.10555117300828,None,241.10555117300828,None,right,1,1.549029228001018,241.10555117300828,None,,,,,,,,,,,,,,,,,,,,,,,,,,,,,,,,,,,,,,,,,,,4,30,M,2021_Apr_09_1755,ldt_en_hi,2021.1.3,1021.5750509267291,
,,,,adverb,backpack,right,2,,,,,,,,,,,,,0,51,51,25,,,,,,,,,,,,,,,,,,,,,,,,,None,244.513488771001,None,,,,,,,243.15943907199835,None,243.15943907199835,None,right,1,1.3525014509941684,243.15943907199835,None,,,,,,,,,,,,,,,,,,,,,,,,,,,,,,,,,,,,,,,,,,,4,30,M,2021_Apr_09_1755,ldt_en_hi,2021.1.3,1021.5750509267291,
,,,,corpse,bigan,left,5,,,,,,,,,,,,,0,52,52,64,,,,,,,,,,,,,,,,,,,,,,,,,None,246.73345337400679,None,,,,,,,245.01730032700289,None,245.01730032700289,None,left,1,1.7143852610024624,245.01730032700289,None,,,,,,,,,,,,,,,,,,,,,,,,,,,,,,,,,,,,,,,,,,,4,30,M,2021_Apr_09_1755,ldt_en_hi,2021.1.3,1021.5750509267291,
,,,,lobster,crab,right,1,,,,,,,,,,,,,0,53,53,19,,,,,,,,,,,,,,,,,,,,,,,,,None,249.1700998239976,None,,,,,,,247.23653630600893,None,247.23653630600893,None,right,1,1.932043719003559,247.23653630600893,None,,,,,,,,,,,,,,,,,,,,,,,,,,,,,,,,,,,,,,,,,,,4,30,M,2021_Apr_09_1755,ldt_en_hi,2021.1.3,1021.5750509267291,
,,,,mabapine,environment,left,4,,,,,,,,,,,,,0,54,54,77,,,,,,,,,,,,,,,,,,,,,,,,,None,250.8791635360103,None,,,,,,,249.67414301401004,None,249.67414301401004,None,left,1,1.2034555519931018,249.67414301401004,None,,,,,,,,,,,,,,,,,,,,,,,,,,,,,,,,,,,,,,,,,,,4,30,M,2021_Apr_09_1755,ldt_en_hi,2021.1.3,1021.5750509267291,
,,,,aczreis,duty,left,4,,,,,,,,,,,,,0,55,55,67,,,,,,,,,,,,,,,,,,,,,,,,,None,253.1238902440091,None,,,,,,,251.38224539300427,None,251.38224539300427,None,left,1,1.740114286003518,251.38224539300427,None,,,,,,,,,,,,,,,,,,,,,,,,,,,,,,,,,,,,,,,,,,,4,30,M,2021_Apr_09_1755,ldt_en_hi,2021.1.3,1021.5750509267291,
,,,,contreqt,bcer,left,3,,,,,,,,,,,,,0,56,56,49,,,,,,,,,,,,,,,,,,,,,,,,,None,257.53225242999906,None,,,,,,,253.6274562840117,None,253.6274562840117,None,left,1,3.903213294004672,253.6274562840117,None,,,,,,,,,,,,,,,,,,,,,,,,,,,,,,,,,,,,,,,,,,,4,30,M,2021_Apr_09_1755,ldt_en_hi,2021.1.3,1021.5750509267291,
,,,,inquire,blush,right,2,,,,,,,,,,,,,0,57,57,39,,,,,,,,,,,,,,,,,,,,,,,,,None,259.7073895979993,None,,,,,,,258.03579524600354,None,258.03579524600354,None,right,1,1.6700443480076501,258.03579524600354,None,,,,,,,,,,,,,,,,,,,,,,,,,,,,,,,,,,,,,,,,,,,4,30,M,2021_Apr_09_1755,ldt_en_hi,2021.1.3,1021.5750509267291,
,,,,cricket,blow,right,2,,,,,,,,,,,,,0,58,58,37,,,,,,,,,,,,,,,,,,,,,,,,,None,261.09935300500365,None,,,,,,,260.2108442700119,None,260.2108442700119,None,right,1,0.8868380890053231,260.2108442700119,None,,,,,,,,,,,,,,,,,,,,,,,,,,,,,,,,,,,,,,,,,,,4,30,M,2021_Apr_09_1755,ldt_en_hi,2021.1.3,1021.5750509267291,
,,,,subtraction,addition,right,1,,,,,,,,,,,,,0,59,59,1,,,,,,,,,,,,,,,,,,,,,,,,,None,262.2513290490024,None,,,,,,,261.60289102200477,None,261.60289102200477,None,right,1,0.6468865149945486,261.60289102200477,None,,,,,,,,,,,,,,,,,,,,,,,,,,,,,,,,,,,,,,,,,,,4,30,M,2021_Apr_09_1755,ldt_en_hi,2021.1.3,1021.5750509267291,
,,,,rug,carpet,right,1,,,,,,,,,,,,,0,60,60,15,,,,,,,,,,,,,,,,,,,,,,,,,None,263.3872386889998,None,,,,,,,262.7547782150068,None,262.7547782150068,None,right,1,0.6309134929906577,262.7547782150068,None,,,,,,,,,,,,,,,,,,,,,,,,,,,,,,,,,,,,,,,,,,,4,30,M,2021_Apr_09_1755,ldt_en_hi,2021.1.3,1021.5750509267291,
,,,,seem,bitch,right,2,,,,,,,,,,,,,0,61,61,34,,,,,,,,,,,,,,,,,,,,,,,,,None,264.4621340300073,None,,,,,,,263.8905588970083,None,263.8905588970083,None,right,1,0.5698108469950967,263.8905588970083,None,,,,,,,,,,,,,,,,,,,,,,,,,,,,,,,,,,,,,,,,,,,4,30,M,2021_Apr_09_1755,ldt_en_hi,2021.1.3,1021.5750509267291,
,,,,cauliflower,broccoli,right,1,,,,,,,,,,,,,0,62,62,12,,,,,,,,,,,,,,,,,,,,,,,,,None,266.983643672007,None,,,,,,,264.96608728999854,None,264.96608728999854,None,right,1,2.0160384829941904,264.96608728999854,None,,,,,,,,,,,,,,,,,,,,,,,,,,,,,,,,,,,,,,,,,,,4,30,M,2021_Apr_09_1755,ldt_en_hi,2021.1.3,1021.5750509267291,
,,,,mug,beer,right,1,,,,,,,,,,,,,0,63,63,7,,,,,,,,,,,,,,,,,,,,,,,,,None,268.09358593700745,None,,,,,,,267.48694473100477,None,267.48694473100477,None,right,1,0.6050873329950264,267.48694473100477,None,,,,,,,,,,,,,,,,,,,,,,,,,,,,,,,,,,,,,,,,,,,4,30,M,2021_Apr_09_1755,ldt_en_hi,2021.1.3,1021.5750509267291,
,,,,inventor,leab,left,5,,,,,,,,,,,,,0,64,64,54,,,,,,,,,,,,,,,,,,,,,,,,,None,269.29659466200974,None,,,,,,,268.59706855400873,None,268.59706855400873,None,right,0,0.6977405970101245,268.59706855400873,None,,,,,,,,,,,,,,,,,,,,,,,,,,,,,,,,,,,,,,,,,,,4,30,M,2021_Apr_09_1755,ldt_en_hi,2021.1.3,1021.5750509267291,
,,,,frugtry,cheat,left,4,,,,,,,,,,,,,0,65,65,70,,,,,,,,,,,,,,,,,,,,,,,,,None,270.3608724689984,None,,,,,,,269.8001449190051,None,269.8001449190051,None,right,0,0.5592087880067993,269.8001449190051,None,,,,,,,,,,,,,,,,,,,,,,,,,,,,,,,,,,,,,,,,,,,4,30,M,2021_Apr_09_1755,ldt_en_hi,2021.1.3,1021.5750509267291,
,,,,adventure,bnat,left,5,,,,,,,,,,,,,0,66,66,62,,,,,,,,,,,,,,,,,,,,,,,,,None,272.316350773006,None,,,,,,,270.8643405340117,None,270.8643405340117,None,left,1,1.4504497720045038,270.8643405340117,None,,,,,,,,,,,,,,,,,,,,,,,,,,,,,,,,,,,,,,,,,,,4,30,M,2021_Apr_09_1755,ldt_en_hi,2021.1.3,1021.5750509267291,
,,,,displfow,pcycce,left,3,,,,,,,,,,,,,0,67,67,51,,,,,,,,,,,,,,,,,,,,,,,,,None,273.74998696699913,None,,,,,,,272.81975376400806,None,272.81975376400806,None,left,1,0.9286764299904462,272.81975376400806,None,,,,,,,,,,,,,,,,,,,,,,,,,,,,,,,,,,,,,,,,,,,4,30,M,2021_Apr_09_1755,ldt_en_hi,2021.1.3,1021.5750509267291,
,,,,octopus,arms,right,1,,,,,,,,,,,,,0,68,68,4,,,,,,,,,,,,,,,,,,,,,,,,,None,276.17920565701206,None,,,,,,,274.25338363301125,None,274.25338363301125,None,right,1,1.9242833239986794,274.25338363301125,None,,,,,,,,,,,,,,,,,,,,,,,,,,,,,,,,,,,,,,,,,,,4,30,M,2021_Apr_09_1755,ldt_en_hi,2021.1.3,1021.5750509267291,
,,,,continent,africa,right,1,,,,,,,,,,,,,0,69,69,2,,,,,,,,,,,,,,,,,,,,,,,,,None,277.4465645910095,None,,,,,,,276.683262231003,None,276.683262231003,None,right,1,0.7617584399995394,276.683262231003,None,,,,,,,,,,,,,,,,,,,,,,,,,,,,,,,,,,,,,,,,,,,4,30,M,2021_Apr_09_1755,ldt_en_hi,2021.1.3,1021.5750509267291,
,,,,region,blame,right,2,,,,,,,,,,,,,0,70,70,35,,,,,,,,,,,,,,,,,,,,,,,,,None,278.4638688220002,None,,,,,,,277.9501112450089,None,277.9501112450089,None,right,1,0.5122475459938869,277.9501112450089,None,,,,,,,,,,,,,,,,,,,,,,,,,,,,,,,,,,,,,,,,,,,4,30,M,2021_Apr_09_1755,ldt_en_hi,2021.1.3,1021.5750509267291,
,,,,entertain,begin,right,2,,,,,,,,,,,,,0,71,71,31,,,,,,,,,,,,,,,,,,,,,,,,,None,279.48126855600276,None,,,,,,,278.9673508039996,None,278.9673508039996,None,right,1,0.5123768799967365,278.9673508039996,None,,,,,,,,,,,,,,,,,,,,,,,,,,,,,,,,,,,,,,,,,,,4,30,M,2021_Apr_09_1755,ldt_en_hi,2021.1.3,1021.5750509267291,
,,,,awareness,base,right,2,,,,,,,,,,,,,0,72,72,28,,,,,,,,,,,,,,,,,,,,,,,,,None,280.7156207560038,None,,,,,,,279.98508043499896,None,279.98508043499896,None,right,1,0.7289803430030588,279.98508043499896,None,,,,,,,,,,,,,,,,,,,,,,,,,,,,,,,,,,,,,,,,,,,4,30,M,2021_Apr_09_1755,ldt_en_hi,2021.1.3,1021.5750509267291,
,,,,buws,decide,left,4,,,,,,,,,,,,,0,73,73,73,,,,,,,,,,,,,,,,,,,,,,,,,None,281.74164158600615,None,,,,,,,281.218818733003,None,281.218818733003,None,right,0,0.5212683290010318,281.218818733003,None,,,,,,,,,,,,,,,,,,,,,,,,,,,,,,,,,,,,,,,,,,,4,30,M,2021_Apr_09_1755,ldt_en_hi,2021.1.3,1021.5750509267291,
,,,,mustache,beard,right,1,,,,,,,,,,,,,0,74,74,6,,,,,,,,,,,,,,,,,,,,,,,,,None,283.22983761700743,None,,,,,,,282.2451703270053,None,282.2451703270053,None,right,1,0.9831140760070411,282.2451703270053,None,,,,,,,,,,,,,,,,,,,,,,,,,,,,,,,,,,,,,,,,,,,4,30,M,2021_Apr_09_1755,ldt_en_hi,2021.1.3,1021.5750509267291,
,,,,disown,atom,right,2,,,,,,,,,,,,,0,75,75,21,,,,,,,,,,,,,,,,,,,,,,,,,None,284.5187454310071,None,,,,,,,283.73329041100806,None,283.73329041100806,None,right,1,0.7839031189942034,283.73329041100806,None,,,,,,,,,,,,,,,,,,,,,,,,,,,,,,,,,,,,,,,,,,,4,30,M,2021_Apr_09_1755,ldt_en_hi,2021.1.3,1021.5750509267291,
,,,,fury,beginner,right,2,,,,,,,,,,,,,0,76,76,32,,,,,,,,,,,,,,,,,,,,,,,,,None,285.6984475000063,None,,,,,,,285.0226703189983,None,285.0226703189983,None,right,1,0.6742224160116166,285.0226703189983,None,,,,,,,,,,,,,,,,,,,,,,,,,,,,,,,,,,,,,,,,,,,4,30,M,2021_Apr_09_1755,ldt_en_hi,2021.1.3,1021.5750509267291,
,,,,actor,axe,right,2,,,,,,,,,,,,,0,77,77,24,,,,,,,,,,,,,,,,,,,,,,,,,None,286.7314411719999,None,,,,,,,286.2018798430072,None,286.2018798430072,None,right,1,0.5280158399982611,286.2018798430072,None,,,,,,,,,,,,,,,,,,,,,,,,,,,,,,,,,,,,,,,,,,,4,30,M,2021_Apr_09_1755,ldt_en_hi,2021.1.3,1021.5750509267291,
,,,,perigrm,unswir,left,3,,,,,,,,,,,,,0,78,78,45,,,,,,,,,,,,,,,,,,,,,,,,,None,289.99020753199875,None,,,,,,,287.2347809350031,None,287.2347809350031,None,right,0,2.7538721519958926,287.2347809350031,None,,,,,,,,,,,,,,,,,,,,,,,,,,,,,,,,,,,,,,,,,,,4,30,M,2021_Apr_09_1755,ldt_en_hi,2021.1.3,1021.5750509267291,
,,,,capmpiwity,nney,left,3,,,,,,,,,,,,,0,79,79,44,,,,,,,,,,,,,,,,,,,,,,,,,None,291.26518332400883,None,,,,,,,290.49356952600647,None,290.49356952600647,None,left,1,0.7697636160010006,290.49356952600647,None,,,,,,,,,,,,,,,,,,,,,,,,,,,,,,,,,,,,,,,,,,,4,30,M,2021_Apr_09_1755,ldt_en_hi,2021.1.3,1021.5750509267291,
,,,,exdlavstion,cloth,left,4,,,,,,,,,,,,,1,0,80,71,,,,,,,,,,,,,,,,,,,,,,,,,None,292.90572203601187,None,,,,,,,291.7685601539997,None,291.7685601539997,None,left,1,1.1356148649938405,291.7685601539997,None,,,,,,,,,,,,,,,,,,,,,,,,,,,,,,,,,,,,,,,,,,,4,30,M,2021_Apr_09_1755,ldt_en_hi,2021.1.3,1021.5750509267291,
,,,,quantyta,berid,left,3,,,,,,,,,,,,,1,1,81,52,,,,,,,,,,,,,,,,,,,,,,,,,None,294.38508365101006,None,,,,,,,293.4093156940071,None,293.4093156940071,None,left,1,0.9742095889960183,293.4093156940071,None,,,,,,,,,,,,,,,,,,,,,,,,,,,,,,,,,,,,,,,,,,,4,30,M,2021_Apr_09_1755,ldt_en_hi,2021.1.3,1021.5750509267291,
,,,,inventor,leab,left,5,,,,,,,,,,,,,1,2,82,54,,,,,,,,,,,,,,,,,,,,,,,,,None,296.84783225400315,None,,,,,,,294.88863886200124,None,294.88863886200124,None,right,0,1.9576201070012758,294.88863886200124,None,,,,,,,,,,,,,,,,,,,,,,,,,,,,,,,,,,,,,,,,,,,4,30,M,2021_Apr_09_1755,ldt_en_hi,2021.1.3,1021.5750509267291,
,,,,frugtry,cheat,left,4,,,,,,,,,,,,,1,3,83,70,,,,,,,,,,,,,,,,,,,,,,,,,None,298.02027117800026,None,,,,,,,297.351292464009,None,297.351292464009,None,right,0,0.6674222919973545,297.351292464009,None,,,,,,,,,,,,,,,,,,,,,,,,,,,,,,,,,,,,,,,,,,,4,30,M,2021_Apr_09_1755,ldt_en_hi,2021.1.3,1021.5750509267291,
,,,,disallow,beat,right,2,,,,,,,,,,,,,1,4,84,29,,,,,,,,,,,,,,,,,,,,,,,,,None,299.32870273300796,None,,,,,,,298.52396033699915,None,298.52396033699915,None,right,1,0.8031945370021276,298.52396033699915,None,,,,,,,,,,,,,,,,,,,,,,,,,,,,,,,,,,,,,,,,,,,4,30,M,2021_Apr_09_1755,ldt_en_hi,2021.1.3,1021.5750509267291,
,,,,displfow,pcycce,left,3,,,,,,,,,,,,,1,5,85,51,,,,,,,,,,,,,,,,,,,,,,,,,None,300.63287138400483,None,,,,,,,299.832456240998,None,299.832456240998,None,left,1,0.7988627169979736,299.832456240998,None,,,,,,,,,,,,,,,,,,,,,,,,,,,,,,,,,,,,,,,,,,,4,30,M,2021_Apr_09_1755,ldt_en_hi,2021.1.3,1021.5750509267291,
,,,,awbxenems,belvem,left,3,,,,,,,,,,,,,1,6,86,50,,,,,,,,,,,,,,,,,,,,,,,,,None,302.7357282610028,None,,,,,,,301.1369860039995,None,301.1369860039995,None,left,1,1.5971635360037908,301.1369860039995,None,,,,,,,,,,,,,,,,,,,,,,,,,,,,,,,,,,,,,,,,,,,4,30,M,2021_Apr_09_1755,ldt_en_hi,2021.1.3,1021.5750509267291,
,,,,blackboard,chalk,right,1,,,,,,,,,,,,,1,7,87,16,,,,,,,,,,,,,,,,,,,,,,,,,None,304.72438752300513,None,,,,,,,303.239143445011,None,303.239143445011,None,right,1,1.4836953939957311,303.239143445011,None,,,,,,,,,,,,,,,,,,,,,,,,,,,,,,,,,,,,,,,,,,,4,30,M,2021_Apr_09_1755,ldt_en_hi,2021.1.3,1021.5750509267291,
,,,,fury,beginner,right,2,,,,,,,,,,,,,1,8,88,32,,,,,,,,,,,,,,,,,,,,,,,,,None,308.186469999011,None,,,,,,,305.2287031070009,None,305.2287031070009,None,right,1,2.956034650997026,305.2287031070009,None,,,,,,,,,,,,,,,,,,,,,,,,,,,,,,,,,,,,,,,,,,,4,30,M,2021_Apr_09_1755,ldt_en_hi,2021.1.3,1021.5750509267291,
,,,,busy,bored,right,1,,,,,,,,,,,,,1,9,89,11,,,,,,,,,,,,,,,,,,,,,,,,,None,310.0137786710111,None,,,,,,,308.6901729700039,None,308.6901729700039,None,right,1,1.322066830995027,308.6901729700039,None,,,,,,,,,,,,,,,,,,,,,,,,,,,,,,,,,,,,,,,,,,,4,30,M,2021_Apr_09_1755,ldt_en_hi,2021.1.3,1021.5750509267291,
,,,,buws,decide,left,4,,,,,,,,,,,,,1,10,90,73,,,,,,,,,,,,,,,,,,,,,,,,,None,311.1188681390049,None,,,,,,,310.5175261510012,None,310.5175261510012,None,right,0,0.599756843992509,310.5175261510012,None,,,,,,,,,,,,,,,,,,,,,,,,,,,,,,,,,,,,,,,,,,,4,30,M,2021_Apr_09_1755,ldt_en_hi,2021.1.3,1021.5750509267291,
,,,,uneven,dival,left,5,,,,,,,,,,,,,1,11,91,55,,,,,,,,,,,,,,,,,,,,,,,,,None,315.1405015860073,None,,,,,,,311.62268512400624,None,311.62268512400624,None,right,0,3.516270441992674,311.62268512400624,None,,,,,,,,,,,,,,,,,,,,,,,,,,,,,,,,,,,,,,,,,,,4,30,M,2021_Apr_09_1755,ldt_en_hi,2021.1.3,1021.5750509267291,
,,,,policeman,cop,right,1,,,,,,,,,,,,,1,12,92,18,,,,,,,,,,,,,,,,,,,,,,,,,None,316.34274398800335,None,,,,,,,315.64459012400766,None,315.64459012400766,None,right,1,0.6965776709985221,315.64459012400766,None,,,,,,,,,,,,,,,,,,,,,,,,,,,,,,,,,,,,,,,,,,,4,30,M,2021_Apr_09_1755,ldt_en_hi,2021.1.3,1021.5750509267291,
,,,,suggeyf,biurd,left,3,,,,,,,,,,,,,1,13,93,48,,,,,,,,,,,,,,,,,,,,,,,,,None,317.83842864100006,None,,,,,,,316.8463607490121,None,316.8463607490121,None,left,1,0.9905232680030167,316.8463607490121,None,,,,,,,,,,,,,,,,,,,,,,,,,,,,,,,,,,,,,,,,,,,4,30,M,2021_Apr_09_1755,ldt_en_hi,2021.1.3,1021.5750509267291,
,,,,actress,actor,right,1,,,,,,,,,,,,,1,14,94,0,,,,,,,,,,,,,,,,,,,,,,,,,None,318.97172011699877,None,,,,,,,318.3423042049981,None,318.3423042049981,None,right,1,0.6278571580041898,318.3423042049981,None,,,,,,,,,,,,,,,,,,,,,,,,,,,,,,,,,,,,,,,,,,,4,30,M,2021_Apr_09_1755,ldt_en_hi,2021.1.3,1021.5750509267291,
,,,,ltbster,lecter,left,3,,,,,,,,,,,,,1,15,95,41,,,,,,,,,,,,,,,,,,,,,,,,,None,320.56317592501,None,,,,,,,319.4750604180008,None,319.4750604180008,None,left,1,1.0865597329975571,319.4750604180008,None,,,,,,,,,,,,,,,,,,,,,,,,,,,,,,,,,,,,,,,,,,,4,30,M,2021_Apr_09_1755,ldt_en_hi,2021.1.3,1021.5750509267291,
,,,,disbelieve,believe,right,1,,,,,,,,,,,,,1,16,96,8,,,,,,,,,,,,,,,,,,,,,,,,,None,321.7675931510021,None,,,,,,,321.06652095000027,None,321.06652095000027,None,right,1,0.6993635469989385,321.06652095000027,None,,,,,,,,,,,,,,,,,,,,,,,,,,,,,,,,,,,,,,,,,,,4,30,M,2021_Apr_09_1755,ldt_en_hi,2021.1.3,1021.5750509267291,
,,,,quantity,beautiful,right,2,,,,,,,,,,,,,1,17,97,30,,,,,,,,,,,,,,,,,,,,,,,,,None,323.0073714960017,None,,,,,,,322.2715973450104,None,322.2715973450104,None,right,1,0.7342245920008281,322.2715973450104,None,,,,,,,,,,,,,,,,,,,,,,,,,,,,,,,,,,,,,,,,,,,4,30,M,2021_Apr_09_1755,ldt_en_hi,2021.1.3,1021.5750509267291,
,,,,mustache,beard,right,1,,,,,,,,,,,,,1,18,98,6,,,,,,,,,,,,,,,,,,,,,,,,,None,324.70127309000236,None,,,,,,,323.51082158200734,None,323.51082158200734,None,right,1,1.1889004809927428,323.51082158200734,None,,,,,,,,,,,,,,,,,,,,,,,,,,,,,,,,,,,,,,,,,,,4,30,M,2021_Apr_09_1755,ldt_en_hi,2021.1.3,1021.5750509267291,
,,,,aczreis,duty,left,4,,,,,,,,,,,,,1,19,99,67,,,,,,,,,,,,,,,,,,,,,,,,,None,325.9093442880112,None,,,,,,,325.2049181610055,None,325.2049181610055,None,right,0,0.702899943004013,325.2049181610055,None,,,,,,,,,,,,,,,,,,,,,,,,,,,,,,,,,,,,,,,,,,,4,30,M,2021_Apr_09_1755,ldt_en_hi,2021.1.3,1021.5750509267291,
,,,,perform,average,right,2,,,,,,,,,,,,,1,20,100,23,,,,,,,,,,,,,,,,,,,,,,,,,None,327.2356945560023,None,,,,,,,326.41308462200686,None,326.41308462200686,None,right,1,0.8210448850004468,326.41308462200686,None,,,,,,,,,,,,,,,,,,,,,,,,,,,,,,,,,,,,,,,,,,,4,30,M,2021_Apr_09_1755,ldt_en_hi,2021.1.3,1021.5750509267291,
,,,,rug,carpet,right,1,,,,,,,,,,,,,1,21,101,15,,,,,,,,,,,,,,,,,,,,,,,,,None,328.7517271300021,None,,,,,,,327.7394338390004,None,327.7394338390004,None,right,1,1.0106810020079138,327.7394338390004,None,,,,,,,,,,,,,,,,,,,,,,,,,,,,,,,,,,,,,,,,,,,4,30,M,2021_Apr_09_1755,ldt_en_hi,2021.1.3,1021.5750509267291,
,,,,actor,axe,right,2,,,,,,,,,,,,,1,22,102,24,,,,,,,,,,,,,,,,,,,,,,,,,None,329.97460775400396,None,,,,,,,329.2553753530083,None,329.2553753530083,None,right,1,0.7176592859905213,329.2553753530083,None,,,,,,,,,,,,,,,,,,,,,,,,,,,,,,,,,,,,,,,,,,,4,30,M,2021_Apr_09_1755,ldt_en_hi,2021.1.3,1021.5750509267291,
,,,,ocbohus,bitch,left,4,,,,,,,,,,,,,1,23,103,72,,,,,,,,,,,,,,,,,,,,,,,,,None,331.60399582500395,None,,,,,,,330.4786664560088,None,330.4786664560088,None,left,1,1.1237533620005706,330.4786664560088,None,,,,,,,,,,,,,,,,,,,,,,,,,,,,,,,,,,,,,,,,,,,4,30,M,2021_Apr_09_1755,ldt_en_hi,2021.1.3,1021.5750509267291,
,,,,harmful,cownr,left,5,,,,,,,,,,,,,1,24,104,61,,,,,,,,,,,,,,,,,,,,,,,,,None,333.0452949980099,None,,,,,,,332.10830653400626,None,332.10830653400626,None,left,1,0.9354149769933429,332.10830653400626,None,,,,,,,,,,,,,,,,,,,,,,,,,,,,,,,,,,,,,,,,,,,4,30,M,2021_Apr_09_1755,ldt_en_hi,2021.1.3,1021.5750509267291,
,,,,magazine,book,right,1,,,,,,,,,,,,,1,25,105,10,,,,,,,,,,,,,,,,,,,,,,,,,None,334.2338548030093,None,,,,,,,333.54881736000243,None,333.54881736000243,None,right,1,0.6834455759963021,333.54881736000243,None,,,,,,,,,,,,,,,,,,,,,,,,,,,,,,,,,,,,,,,,,,,4,30,M,2021_Apr_09_1755,ldt_en_hi,2021.1.3,1021.5750509267291,
,,,,invent,ceok,left,5,,,,,,,,,,,,,1,26,106,53,,,,,,,,,,,,,,,,,,,,,,,,,None,336.28193411100074,None,,,,,,,334.7374099180015,None,334.7374099180015,None,left,1,1.5429481739993207,334.7374099180015,None,,,,,,,,,,,,,,,,,,,,,,,,,,,,,,,,,,,,,,,,,,,4,30,M,2021_Apr_09_1755,ldt_en_hi,2021.1.3,1021.5750509267291,
,,,,data,beaufifsl,left,5,,,,,,,,,,,,,1,27,107,63,,,,,,,,,,,,,,,,,,,,,,,,,None,337.9285056920053,None,,,,,,,336.78578030801145,None,336.78578030801145,None,left,1,1.140892993993475,336.78578030801145,None,,,,,,,,,,,,,,,,,,,,,,,,,,,,,,,,,,,,,,,,,,,4,30,M,2021_Apr_09_1755,ldt_en_hi,2021.1.3,1021.5750509267291,
,,,,mug,beer,right,1,,,,,,,,,,,,,1,28,108,7,,,,,,,,,,,,,,,,,,,,,,,,,None,339.12954340899887,None,,,,,,,338.4326510610117,None,338.4326510610117,None,right,1,0.6953240509901661,338.4326510610117,None,,,,,,,,,,,,,,,,,,,,,,,,,,,,,,,,,,,,,,,,,,,4,30,M,2021_Apr_09_1755,ldt_en_hi,2021.1.3,1021.5750509267291,
,,,,contract,bar,right,2,,,,,,,,,,,,,1,29,109,27,,,,,,,,,,,,,,,,,,,,,,,,,None,340.2995540700067,None,,,,,,,339.63311544600583,None,339.63311544600583,None,right,1,0.6646343299944419,339.63311544600583,None,,,,,,,,,,,,,,,,,,,,,,,,,,,,,,,,,,,,,,,,,,,4,30,M,2021_Apr_09_1755,ldt_en_hi,2021.1.3,1021.5750509267291,
,,,,octopus,arms,right,1,,,,,,,,,,,,,1,30,110,4,,,,,,,,,,,,,,,,,,,,,,,,,None,341.46940830000676,None,,,,,,,340.80278838401136,None,340.80278838401136,None,right,1,0.6647826720000012,340.80278838401136,None,,,,,,,,,,,,,,,,,,,,,,,,,,,,,,,,,,,,,,,,,,,4,30,M,2021_Apr_09_1755,ldt_en_hi,2021.1.3,1021.5750509267291,
,,,,lobster,crab,right,1,,,,,,,,,,,,,1,31,111,19,,,,,,,,,,,,,,,,,,,,,,,,,None,342.73122853500536,None,,,,,,,341.97333335901203,None,341.97333335901203,None,right,1,0.7562587989959866,341.97333335901203,None,,,,,,,,,,,,,,,,,,,,,,,,,,,,,,,,,,,,,,,,,,,4,30,M,2021_Apr_09_1755,ldt_en_hi,2021.1.3,1021.5750509267291,
,,,,kitchen,cook,right,1,,,,,,,,,,,,,1,32,112,17,,,,,,,,,,,,,,,,,,,,,,,,,None,343.73523459699936,None,,,,,,,343.2352201330068,None,343.2352201330068,None,right,1,0.49843172400142066,343.2352201330068,None,,,,,,,,,,,,,,,,,,,,,,,,,,,,,,,,,,,,,,,,,,,4,30,M,2021_Apr_09_1755,ldt_en_hi,2021.1.3,1021.5750509267291,
,,,,capability,attic,right,2,,,,,,,,,,,,,1,33,113,22,,,,,,,,,,,,,,,,,,,,,,,,,None,344.88006052499986,None,,,,,,,344.23903169600817,None,344.23903169600817,None,right,1,0.6394254440092482,344.23903169600817,None,,,,,,,,,,,,,,,,,,,,,,,,,,,,,,,,,,,,,,,,,,,4,30,M,2021_Apr_09_1755,ldt_en_hi,2021.1.3,1021.5750509267291,
,,,,cowtnet,freedom,left,4,,,,,,,,,,,,,1,34,114,69,,,,,,,,,,,,,,,,,,,,,,,,,None,345.85103844800324,None,,,,,,,345.38374672499776,None,345.38374672499776,None,right,0,0.4657287029986037,345.38374672499776,None,,,,,,,,,,,,,,,,,,,,,,,,,,,,,,,,,,,,,,,,,,,4,30,M,2021_Apr_09_1755,ldt_en_hi,2021.1.3,1021.5750509267291,
,,,,mabapine,environment,left,4,,,,,,,,,,,,,1,35,115,77,,,,,,,,,,,,,,,,,,,,,,,,,None,347.46326638400205,None,,,,,,,346.3548162980005,None,346.3548162980005,None,left,1,1.1068773119914113,346.3548162980005,None,,,,,,,,,,,,,,,,,,,,,,,,,,,,,,,,,,,,,,,,,,,4,30,M,2021_Apr_09_1755,ldt_en_hi,2021.1.3,1021.5750509267291,
,,,,disagreement,blanket,right,2,,,,,,,,,,,,,1,36,116,36,,,,,,,,,,,,,,,,,,,,,,,,,None,348.65089431300294,None,,,,,,,347.96678816400527,None,347.96678816400527,None,right,1,0.6824934530013707,347.96678816400527,None,,,,,,,,,,,,,,,,,,,,,,,,,,,,,,,,,,,,,,,,,,,4,30,M,2021_Apr_09_1755,ldt_en_hi,2021.1.3,1021.5750509267291,
,,,,perigrm,unswir,left,3,,,,,,,,,,,,,1,37,117,45,,,,,,,,,,,,,,,,,,,,,,,,,None,350.2875784630014,None,,,,,,,349.1544658690109,None,349.1544658690109,None,right,0,1.1315284410084132,349.1544658690109,None,,,,,,,,,,,,,,,,,,,,,,,,,,,,,,,,,,,,,,,,,,,4,30,M,2021_Apr_09_1755,ldt_en_hi,2021.1.3,1021.5750509267291,
,,,,busg,data,left,4,,,,,,,,,,,,,1,38,118,78,,,,,,,,,,,,,,,,,,,,,,,,,None,351.63086063900846,None,,,,,,,350.7917718450044,None,350.7917718450044,None,left,1,0.8375182430027053,350.7917718450044,None,,,,,,,,,,,,,,,,,,,,,,,,,,,,,,,,,,,,,,,,,,,4,30,M,2021_Apr_09_1755,ldt_en_hi,2021.1.3,1021.5750509267291,
,,,,valuable,devil,right,2,,,,,,,,,,,,,1,39,119,20,,,,,,,,,,,,,,,,,,,,,,,,,None,354.66396822800743,None,,,,,,,352.13499712600606,None,352.13499712600606,None,right,1,2.527375449993997,352.13499712600606,None,,,,,,,,,,,,,,,,,,,,,,,,,,,,,,,,,,,,,,,,,,,4,30,M,2021_Apr_09_1755,ldt_en_hi,2021.1.3,1021.5750509267291,
,,,,cauliflower,broccoli,right,1,,,,,,,,,,,,,1,40,120,12,,,,,,,,,,,,,,,,,,,,,,,,,None,355.79722908900294,None,,,,,,,355.16794119001133,None,355.16794119001133,None,right,1,0.6274277090124087,355.16794119001133,None,,,,,,,,,,,,,,,,,,,,,,,,,,,,,,,,,,,,,,,,,,,4,30,M,2021_Apr_09_1755,ldt_en_hi,2021.1.3,1021.5750509267291,
,,,,stpactin,fear,left,4,,,,,,,,,,,,,1,41,121,68,,,,,,,,,,,,,,,,,,,,,,,,,None,357.3087444679986,None,,,,,,,356.3030218260101,None,356.3030218260101,None,left,1,1.0041525489941705,356.3030218260101,None,,,,,,,,,,,,,,,,,,,,,,,,,,,,,,,,,,,,,,,,,,,4,30,M,2021_Apr_09_1755,ldt_en_hi,2021.1.3,1021.5750509267291,
,,,,adorable,bckpwck,left,5,,,,,,,,,,,,,1,42,122,59,,,,,,,,,,,,,,,,,,,,,,,,,None,358.544414916003,None,,,,,,,357.81258966200403,None,357.81258966200403,None,left,1,0.7301994840090629,357.81258966200403,None,,,,,,,,,,,,,,,,,,,,,,,,,,,,,,,,,,,,,,,,,,,4,30,M,2021_Apr_09_1755,ldt_en_hi,2021.1.3,1021.5750509267291,
,,,,bow,arrow,right,1,,,,,,,,,,,,,1,43,123,5,,,,,,,,,,,,,,,,,,,,,,,,,None,360.0652206780069,None,,,,,,,359.0484852160007,None,359.0484852160007,None,right,1,1.0151626029983163,359.0484852160007,None,,,,,,,,,,,,,,,,,,,,,,,,,,,,,,,,,,,,,,,,,,,4,30,M,2021_Apr_09_1755,ldt_en_hi,2021.1.3,1021.5750509267291,
,,,,imhge,eyes,left,4,,,,,,,,,,,,,1,44,124,75,,,,,,,,,,,,,,,,,,,,,,,,,None,361.42975567000394,None,,,,,,,360.569084104005,None,360.569084104005,None,left,1,0.8590799210069235,360.569084104005,None,,,,,,,,,,,,,,,,,,,,,,,,,,,,,,,,,,,,,,,,,,,4,30,M,2021_Apr_09_1755,ldt_en_hi,2021.1.3,1021.5750509267291,
,,,,caklqblower,fashion,left,4,,,,,,,,,,,,,1,45,125,79,,,,,,,,,,,,,,,,,,,,,,,,,None,362.9469024220016,None,,,,,,,361.93347807200917,None,361.93347807200917,None,left,1,1.0118307850061683,361.93347807200917,None,,,,,,,,,,,,,,,,,,,,,,,,,,,,,,,,,,,,,,,,,,,4,30,M,2021_Apr_09_1755,ldt_en_hi,2021.1.3,1021.5750509267291,
,,,,adverb,backpack,right,2,,,,,,,,,,,,,1,46,126,25,,,,,,,,,,,,,,,,,,,,,,,,,None,364.59875716399984,None,,,,,,,363.4508379140025,None,363.4508379140025,None,right,1,1.1463475210039178,363.4508379140025,None,,,,,,,,,,,,,,,,,,,,,,,,,,,,,,,,,,,,,,,,,,,4,30,M,2021_Apr_09_1755,ldt_en_hi,2021.1.3,1021.5750509267291,
,,,,cricket,blow,right,2,,,,,,,,,,,,,1,47,127,37,,,,,,,,,,,,,,,,,,,,,,,,,None,365.88301856700855,None,,,,,,,365.10233392901137,None,365.10233392901137,None,right,1,0.779065508992062,365.10233392901137,None,,,,,,,,,,,,,,,,,,,,,,,,,,,,,,,,,,,,,,,,,,,4,30,M,2021_Apr_09_1755,ldt_en_hi,2021.1.3,1021.5750509267291,
,,,,mgstachi,forest,left,4,,,,,,,,,,,,,1,48,128,74,,,,,,,,,,,,,,,,,,,,,,,,,None,366.87556148599833,None,,,,,,,366.3870359650027,None,366.3870359650027,None,right,0,0.48694032699859235,366.3870359650027,None,,,,,,,,,,,,,,,,,,,,,,,,,,,,,,,,,,,,,,,,,,,4,30,M,2021_Apr_09_1755,ldt_en_hi,2021.1.3,1021.5750509267291,
,,,,udvirb,prew,left,3,,,,,,,,,,,,,1,49,129,47,,,,,,,,,,,,,,,,,,,,,,,,,None,368.46233955900243,None,,,,,,,367.3790590889985,None,367.3790590889985,None,left,1,1.0817064409930026,367.3790590889985,None,,,,,,,,,,,,,,,,,,,,,,,,,,,,,,,,,,,,,,,,,,,4,30,M,2021_Apr_09_1755,ldt_en_hi,2021.1.3,1021.5750509267291,
,,,,disown,atom,right,2,,,,,,,,,,,,,1,50,130,21,,,,,,,,,,,,,,,,,,,,,,,,,None,369.70337723899866,None,,,,,,,368.9664393590065,None,368.9664393590065,None,right,1,0.7353560519986786,368.9664393590065,None,,,,,,,,,,,,,,,,,,,,,,,,,,,,,,,,,,,,,,,,,,,4,30,M,2021_Apr_09_1755,ldt_en_hi,2021.1.3,1021.5750509267291,
,,,,awareness,base,right,2,,,,,,,,,,,,,1,51,131,28,,,,,,,,,,,,,,,,,,,,,,,,,None,371.1611874750088,None,,,,,,,370.20709721899766,None,370.20709721899766,None,right,1,0.9524819310026942,370.20709721899766,None,,,,,,,,,,,,,,,,,,,,,,,,,,,,,,,,,,,,,,,,,,,4,30,M,2021_Apr_09_1755,ldt_en_hi,2021.1.3,1021.5750509267291,
,,,,subtraction,addition,right,1,,,,,,,,,,,,,1,52,132,1,,,,,,,,,,,,,,,,,,,,,,,,,None,372.5503262280108,None,,,,,,,371.6655181410024,None,371.6655181410024,None,right,1,0.8832319990033284,371.6655181410024,None,,,,,,,,,,,,,,,,,,,,,,,,,,,,,,,,,,,,,,,,,,,4,30,M,2021_Apr_09_1755,ldt_en_hi,2021.1.3,1021.5750509267291,
,,,,adventure,bnat,left,5,,,,,,,,,,,,,1,53,133,62,,,,,,,,,,,,,,,,,,,,,,,,,None,374.3279448710091,None,,,,,,,373.05388074100483,None,373.05388074100483,None,left,1,1.2724855409906013,373.05388074100483,None,,,,,,,,,,,,,,,,,,,,,,,,,,,,,,,,,,,,,,,,,,,4,30,M,2021_Apr_09_1755,ldt_en_hi,2021.1.3,1021.5750509267291,
,,,,suggest,ballet,right,2,,,,,,,,,,,,,1,54,134,26,,,,,,,,,,,,,,,,,,,,,,,,,None,375.6493439240003,None,,,,,,,374.83232802500424,None,374.83232802500424,None,right,1,0.8154001959919697,374.83232802500424,None,,,,,,,,,,,,,,,,,,,,,,,,,,,,,,,,,,,,,,,,,,,4,30,M,2021_Apr_09_1755,ldt_en_hi,2021.1.3,1021.5750509267291,
,,,,tumor,cancer,right,1,,,,,,,,,,,,,1,55,135,14,,,,,,,,,,,,,,,,,,,,,,,,,None,376.85428320401115,None,,,,,,,376.1529679140076,None,376.1529679140076,None,right,1,0.699730581996846,376.1529679140076,None,,,,,,,,,,,,,,,,,,,,,,,,,,,,,,,,,,,,,,,,,,,4,30,M,2021_Apr_09_1755,ldt_en_hi,2021.1.3,1021.5750509267291,
,,,,explanation,answer,right,1,,,,,,,,,,,,,1,56,136,3,,,,,,,,,,,,,,,,,,,,,,,,,None,377.91752620101033,None,,,,,,,377.3577041440003,None,377.3577041440003,None,right,1,0.5582506849896163,377.3577041440003,None,,,,,,,,,,,,,,,,,,,,,,,,,,,,,,,,,,,,,,,,,,,4,30,M,2021_Apr_09_1755,ldt_en_hi,2021.1.3,1021.5750509267291,
,,,,riject,farm,left,4,,,,,,,,,,,,,1,57,137,66,,,,,,,,,,,,,,,,,,,,,,,,,None,379.5092356890091,None,,,,,,,378.4212029490009,None,378.4212029490009,None,left,1,1.0864361580024706,378.4212029490009,None,,,,,,,,,,,,,,,,,,,,,,,,,,,,,,,,,,,,,,,,,,,4,30,M,2021_Apr_09_1755,ldt_en_hi,2021.1.3,1021.5750509267291,
,,,,seem,bitch,right,2,,,,,,,,,,,,,1,58,138,34,,,,,,,,,,,,,,,,,,,,,,,,,None,381.04619196400745,None,,,,,,,380.012641334004,None,380.012641334004,None,right,1,1.031938069005264,380.012641334004,None,,,,,,,,,,,,,,,,,,,,,,,,,,,,,,,,,,,,,,,,,,,4,30,M,2021_Apr_09_1755,ldt_en_hi,2021.1.3,1021.5750509267291,
,,,,valuabzr,additkos,left,3,,,,,,,,,,,,,1,59,139,42,,,,,,,,,,,,,,,,,,,,,,,,,None,382.3696992250043,None,,,,,,,381.549661543002,None,381.549661543002,None,left,1,0.8184629759925883,381.549661543002,None,,,,,,,,,,,,,,,,,,,,,,,,,,,,,,,,,,,,,,,,,,,4,30,M,2021_Apr_09_1755,ldt_en_hi,2021.1.3,1021.5750509267291,
,,,,region,blame,right,2,,,,,,,,,,,,,1,60,140,35,,,,,,,,,,,,,,,,,,,,,,,,,None,383.62324837900815,None,,,,,,,382.8737152280082,None,382.8737152280082,None,right,1,0.7479603690007934,382.8737152280082,None,,,,,,,,,,,,,,,,,,,,,,,,,,,,,,,,,,,,,,,,,,,4,30,M,2021_Apr_09_1755,ldt_en_hi,2021.1.3,1021.5750509267291,
,,,,antidote,averake,left,5,,,,,,,,,,,,,1,61,141,58,,,,,,,,,,,,,,,,,,,,,,,,,None,387.2141302009986,None,,,,,,,384.12727888301015,None,384.12727888301015,None,left,1,3.085209295997629,384.12727888301015,None,,,,,,,,,,,,,,,,,,,,,,,,,,,,,,,,,,,,,,,,,,,4,30,M,2021_Apr_09_1755,ldt_en_hi,2021.1.3,1021.5750509267291,
,,,,tricycle,bicycle,right,1,,,,,,,,,,,,,1,62,142,9,,,,,,,,,,,,,,,,,,,,,,,,,None,388.66480338601104,None,,,,,,,387.718137636999,None,387.718137636999,None,right,1,0.9451040949934395,387.718137636999,None,,,,,,,,,,,,,,,,,,,,,,,,,,,,,,,,,,,,,,,,,,,4,30,M,2021_Apr_09_1755,ldt_en_hi,2021.1.3,1021.5750509267291,
,,,,mute,bygknner,left,5,,,,,,,,,,,,,1,63,143,65,,,,,,,,,,,,,,,,,,,,,,,,,None,391.09316021400446,None,,,,,,,389.16890895500546,None,389.16890895500546,None,left,1,1.9226785709906835,389.16890895500546,None,,,,,,,,,,,,,,,,,,,,,,,,,,,,,,,,,,,,,,,,,,,4,30,M,2021_Apr_09_1755,ldt_en_hi,2021.1.3,1021.5750509267291,
,,,,poldcemps,uccipt,left,3,,,,,,,,,,,,,1,64,144,40,,,,,,,,,,,,,,,,,,,,,,,,,None,392.9974622060108,None,,,,,,,391.59669073500845,None,391.59669073500845,None,left,1,1.3988895140064415,391.59669073500845,None,,,,,,,,,,,,,,,,,,,,,,,,,,,,,,,,,,,,,,,,,,,4,30,M,2021_Apr_09_1755,ldt_en_hi,2021.1.3,1021.5750509267291,
,,,,snuggle,atnton,left,5,,,,,,,,,,,,,1,65,145,56,,,,,,,,,,,,,,,,,,,,,,,,,None,394.5016813810071,None,,,,,,,393.5012047460041,None,393.5012047460041,None,left,1,0.9988855480041821,393.5012047460041,None,,,,,,,,,,,,,,,,,,,,,,,,,,,,,,,,,,,,,,,,,,,4,30,M,2021_Apr_09_1755,ldt_en_hi,2021.1.3,1021.5750509267291,
,,,,disbhvmeve,destroy,left,4,,,,,,,,,,,,,1,66,146,76,,,,,,,,,,,,,,,,,,,,,,,,,None,395.7350010000082,None,,,,,,,395.00611069500155,None,395.00611069500155,None,right,0,0.7272770240087993,395.00611069500155,None,,,,,,,,,,,,,,,,,,,,,,,,,,,,,,,,,,,,,,,,,,,4,30,M,2021_Apr_09_1755,ldt_en_hi,2021.1.3,1021.5750509267291,
,,,,entertain,begin,right,2,,,,,,,,,,,,,1,67,147,31,,,,,,,,,,,,,,,,,,,,,,,,,None,397.40598157299974,None,,,,,,,396.23877092800103,None,396.23877092800103,None,right,1,1.1656403240049258,396.23877092800103,None,,,,,,,,,,,,,,,,,,,,,,,,,,,,,,,,,,,,,,,,,,,4,30,M,2021_Apr_09_1755,ldt_en_hi,2021.1.3,1021.5750509267291,
,,,,ballet,fgor,left,5,,,,,,,,,,,,,1,68,148,60,,,,,,,,,,,,,,,,,,,,,,,,,None,398.97720000900154,None,,,,,,,397.9098759100016,None,397.9098759100016,None,left,1,1.065740295991418,397.9098759100016,None,,,,,,,,,,,,,,,,,,,,,,,,,,,,,,,,,,,,,,,,,,,4,30,M,2021_Apr_09_1755,ldt_en_hi,2021.1.3,1021.5750509267291,
,,,,capmpiwity,nney,left,3,,,,,,,,,,,,,1,69,149,44,,,,,,,,,,,,,,,,,,,,,,,,,None,403.6031251000095,None,,,,,,,399.48088601999916,None,399.48088601999916,None,left,1,4.120395988007658,399.48088601999916,None,,,,,,,,,,,,,,,,,,,,,,,,,,,,,,,,,,,,,,,,,,,4,30,M,2021_Apr_09_1755,ldt_en_hi,2021.1.3,1021.5750509267291,
,,,,ash,blue,right,2,,,,,,,,,,,,,1,70,150,38,,,,,,,,,,,,,,,,,,,,,,,,,None,405.0496919279976,None,,,,,,,404.1083114560024,None,404.1083114560024,None,right,1,0.9398124480067054,404.1083114560024,None,,,,,,,,,,,,,,,,,,,,,,,,,,,,,,,,,,,,,,,,,,,4,30,M,2021_Apr_09_1755,ldt_en_hi,2021.1.3,1021.5750509267291,
,,,,saucer,uttac,left,5,,,,,,,,,,,,,1,71,151,57,,,,,,,,,,,,,,,,,,,,,,,,,None,407.1141515280033,None,,,,,,,405.55354012300086,None,405.55354012300086,None,right,0,1.5590398109925445,405.55354012300086,None,,,,,,,,,,,,,,,,,,,,,,,,,,,,,,,,,,,,,,,,,,,4,30,M,2021_Apr_09_1755,ldt_en_hi,2021.1.3,1021.5750509267291,
,,,,sister,brother,right,1,,,,,,,,,,,,,1,72,152,13,,,,,,,,,,,,,,,,,,,,,,,,,None,408.19812436800567,None,,,,,,,407.6175728160015,None,407.6175728160015,None,right,1,0.5789568280015374,407.6175728160015,None,,,,,,,,,,,,,,,,,,,,,,,,,,,,,,,,,,,,,,,,,,,4,30,M,2021_Apr_09_1755,ldt_en_hi,2021.1.3,1021.5750509267291,
,,,,corpse,bigan,left,5,,,,,,,,,,,,,1,73,153,64,,,,,,,,,,,,,,,,,,,,,,,,,None,409.4719760200096,None,,,,,,,408.70192765499814,None,408.70192765499814,None,right,0,0.768448481001542,408.70192765499814,None,,,,,,,,,,,,,,,,,,,,,,,,,,,,,,,,,,,,,,,,,,,4,30,M,2021_Apr_09_1755,ldt_en_hi,2021.1.3,1021.5750509267291,
,,,,dasewn,ufraca,left,3,,,,,,,,,,,,,1,74,154,43,,,,,,,,,,,,,,,,,,,,,,,,,None,412.36693379200005,None,,,,,,,409.9754849840101,None,409.9754849840101,None,left,1,2.389838460003375,409.9754849840101,None,,,,,,,,,,,,,,,,,,,,,,,,,,,,,,,,,,,,,,,,,,,4,30,M,2021_Apr_09_1755,ldt_en_hi,2021.1.3,1021.5750509267291,
,,,,ucter,arks,left,3,,,,,,,,,,,,,1,75,155,46,,,,,,,,,,,,,,,,,,,,,,,,,None,414.1037674350082,None,,,,,,,412.87023447400134,None,412.87023447400134,None,right,0,1.2319384770089528,412.87023447400134,None,,,,,,,,,,,,,,,,,,,,,,,,,,,,,,,,,,,,,,,,,,,4,30,M,2021_Apr_09_1755,ldt_en_hi,2021.1.3,1021.5750509267291,
,,,,inquire,blush,right,2,,,,,,,,,,,,,1,76,156,39,,,,,,,,,,,,,,,,,,,,,,,,,None,415.12506315299834,None,,,,,,,414.60727542900713,None,414.60727542900713,None,right,1,0.5162084710027557,414.60727542900713,None,,,,,,,,,,,,,,,,,,,,,,,,,,,,,,,,,,,,,,,,,,,4,30,M,2021_Apr_09_1755,ldt_en_hi,2021.1.3,1021.5750509267291,
,,,,continent,africa,right,1,,,,,,,,,,,,,1,77,157,2,,,,,,,,,,,,,,,,,,,,,,,,,None,416.1663110350055,None,,,,,,,415.6291400370101,None,415.6291400370101,None,right,1,0.5355559700110462,415.6291400370101,None,,,,,,,,,,,,,,,,,,,,,,,,,,,,,,,,,,,,,,,,,,,4,30,M,2021_Apr_09_1755,ldt_en_hi,2021.1.3,1021.5750509267291,
,,,,anteater,belt,right,2,,,,,,,,,,,,,1,78,158,33,,,,,,,,,,,,,,,,,,,,,,,,,None,417.1056098330009,None,,,,,,,416.66989498899784,None,416.66989498899784,None,right,1,0.43415425400598906,416.66989498899784,None,,,,,,,,,,,,,,,,,,,,,,,,,,,,,,,,,,,,,,,,,,,4,30,M,2021_Apr_09_1755,ldt_en_hi,2021.1.3,1021.5750509267291,
,,,,contreqt,bcer,left,3,,,,,,,,,,,,,1,79,159,49,,,,,,,,,,,,,,,,,,,,,,,,,None,418.26101663601,None,,,,,,,417.6092010440043,None,417.6092010440043,None,left,1,0.6502109440043569,417.6092010440043,None,,,,,,,,,,,,,,,,,,,,,,,,,,,,,,,,,,,,,,,,,,,4,30,M,2021_Apr_09_1755,ldt_en_hi,2021.1.3,1021.5750509267291,
,,,,,,,,,,,,,,,,,,,,,,,,,,,,,,,,,,,,,,,,,,,,,,,,,,,,,,,,,,,,,,,,,,418.7620014749991,None,right,0,8.025804046992562,418.7620014749991,None,,,,,,,,,,,,,,,,,,,,,,,,,,,,,,,,,,,,4,30,M,2021_Apr_09_1755,ldt_en_hi,2021.1.3,1021.5750509267291,
,,,,,,,,मेंढक,deaf,right,7,,,,,,,,,,,,,0,0,0,3,,,,,,,,,,,,,,,,,,,,,None,429.77440075601044,None,,,,,,,,,,,,,,,,,,,,,,,426.84332692100725,None,426.84332692100725,None,right,1,2.9290774979890557,426.84332692100725,None,,,,,,,,,,,,,,,,,,,,,,,,,,,4,30,M,2021_Apr_09_1755,ldt_en_hi,2021.1.3,1021.5750509267291,
,,,,,,,,नेता,follower,right,6,,,,,,,,,,,,,0,1,1,0,,,,,,,,,,,,,,,,,,,,,None,432.50604069800465,None,,,,,,,,,,,,,,,,,,,,,,,430.3072020460095,None,430.3072020460095,None,right,1,2.1972751849971246,430.3072020460095,None,,,,,,,,,,,,,,,,,,,,,,,,,,,4,30,M,2021_Apr_09_1755,ldt_en_hi,2021.1.3,1021.5750509267291,
,,,,,,,,नता,babi,left,8,,,,,,,,,,,,,0,2,2,1,,,,,,,,,,,,,,,,,,,,,None,436.3541799939994,None,,,,,,,,,,,,,,,,,,,,,,,433.00939841300715,None,433.00939841300715,None,left,1,3.343202028001542,433.00939841300715,None,,,,,,,,,,,,,,,,,,,,,,,,,,,4,30,M,2021_Apr_09_1755,ldt_en_hi,2021.1.3,1021.5750509267291,
,,,,,,,,टराव,explanation,left,9,,,,,,,,,,,,,0,3,3,2,,,,,,,,,,,,,,,,,,,,,None,441.5625808920013,None,,,,,,,,,,,,,,,,,,,,,,,436.8883179780096,None,436.8883179780096,None,right,0,4.672712380008306,436.8883179780096,None,,,,,,,,,,,,,,,,,,,,,,,,,,,4,30,M,2021_Apr_09_1755,ldt_en_hi,2021.1.3,1021.5750509267291,
,,,,,,,,भेंस,imhge,left,10,,,,,,,,,,,,,0,4,4,4,,,,,,,,,,,,,,,,,,,,,None,443.3417345380003,None,,,,,,,,,,,,,,,,,,,,,,,442.09209164800995,None,442.09209164800995,None,left,1,1.2480895909975516,442.09209164800995,None,,,,,,,,,,,,,,,,,,,,,,,,,,,4,30,M,2021_Apr_09_1755,ldt_en_hi,2021.1.3,1021.5750509267291,
,,,,,,,,,,,,,,,,,,,,,,,,,,,,,,,,,,,,,,,,,,,,,,,,,,,443.84268323300057,None,right,2.3003807549976045,443.84268323300057,None,,,,,,,,,,,,,,,,,,,,,,,,,,,,,,,,,,,,,,,,,,,,,,,,,,,,4,30,M,2021_Apr_09_1755,ldt_en_hi,2021.1.3,1021.5750509267291,
,,,,,,,,,,,,गहना,diamond,right,6,,,,,,,,,,,,,0,0,0,20,,,,,,,,,,,,,,,,,None,453.50442611701146,None,,,,,,,,,,,,,,,,,,,,,,,,,,,,,,,,446.1974670970085,None,446.1974670970085,None,right,1,7.304732131000492,446.1974670970085,None,,,,,,,,,,,,,,,,,,4,30,M,2021_Apr_09_1755,ldt_en_hi,2021.1.3,1021.5750509267291,
,,,,,,,,,,,,टराव,tumor,left,9,,,,,,,,,,,,,0,1,1,68,,,,,,,,,,,,,,,,,None,456.09786464000354,None,,,,,,,,,,,,,,,,,,,,,,,,,,,,,,,,454.00867007501074,None,454.00867007501074,None,right,0,2.087466768993181,454.00867007501074,None,,,,,,,,,,,,,,,,,,4,30,M,2021_Apr_09_1755,ldt_en_hi,2021.1.3,1021.5750509267291,
,,,,,,,,,,,,काम,imhge,left,10,,,,,,,,,,,,,0,2,2,40,,,,,,,,,,,,,,,,,None,457.6851945040107,None,,,,,,,,,,,,,,,,,,,,,,,,,,,,,,,,456.6013964020094,None,456.6013964020094,None,left,1,1.0822186060104286,456.6013964020094,None,,,,,,,,,,,,,,,,,,4,30,M,2021_Apr_09_1755,ldt_en_hi,2021.1.3,1021.5750509267291,
,,,,,,,,,,,,रात,day,right,6,,,,,,,,,,,,,0,3,3,19,,,,,,,,,,,,,,,,,None,459.4000980990095,None,,,,,,,,,,,,,,,,,,,,,,,,,,,,,,,,458.18888698500814,None,458.18888698500814,None,right,1,1.209626992000267,458.18888698500814,None,,,,,,,,,,,,,,,,,,4,30,M,2021_Apr_09_1755,ldt_en_hi,2021.1.3,1021.5750509267291,
,,,,,,,,,,,,लड़की,baby,right,6,,,,,,,,,,,,,0,4,4,3,,,,,,,,,,,,,,,,,None,461.67487742401136,None,,,,,,,,,,,,,,,,,,,,,,,,,,,,,,,,459.94225087000814,None,459.94225087000814,None,right,1,1.731039389007492,459.94225087000814,None,,,,,,,,,,,,,,,,,,4,30,M,2021_Apr_09_1755,ldt_en_hi,2021.1.3,1021.5750509267291,
,,,,,,,,,,,,लड़की,boy,right,6,,,,,,,,,,,,,0,5,5,10,,,,,,,,,,,,,,,,,None,462.9362396350043,None,,,,,,,,,,,,,,,,,,,,,,,,,,,,,,,,462.17860376399767,None,462.17860376399767,None,right,1,0.7560436829953687,462.17860376399767,None,,,,,,,,,,,,,,,,,,4,30,M,2021_Apr_09_1755,ldt_en_hi,2021.1.3,1021.5750509267291,
,,,,,,,,,,,,सच,copy,right,7,,,,,,,,,,,,,0,6,6,25,,,,,,,,,,,,,,,,,None,464.8859019250085,None,,,,,,,,,,,,,,,,,,,,,,,,,,,,,,,,463.45286764600314,None,463.45286764600314,None,right,1,1.4311732630012557,463.45286764600314,None,,,,,,,,,,,,,,,,,,4,30,M,2021_Apr_09_1755,ldt_en_hi,2021.1.3,1021.5750509267291,
,,,,,,,,,,,,केल,fgor,left,8,,,,,,,,,,,,,0,7,7,64,,,,,,,,,,,,,,,,,None,466.26934276999964,None,,,,,,,,,,,,,,,,,,,,,,,,,,,,,,,,465.38930285901006,None,465.38930285901006,None,left,1,0.8784510030091042,465.38930285901006,None,,,,,,,,,,,,,,,,,,4,30,M,2021_Apr_09_1755,ldt_en_hi,2021.1.3,1021.5750509267291,
,,,,,,,,,,,,गाजर,dasewn,left,10,,,,,,,,,,,,,0,8,8,49,,,,,,,,,,,,,,,,,None,469.5065566090052,None,,,,,,,,,,,,,,,,,,,,,,,,,,,,,,,,466.7886490210076,None,466.7886490210076,None,left,1,2.716297004997614,466.7886490210076,None,,,,,,,,,,,,,,,,,,4,30,M,2021_Apr_09_1755,ldt_en_hi,2021.1.3,1021.5750509267291,
,,,,,,,,,,,,जगल,policeman,left,9,,,,,,,,,,,,,0,9,9,77,,,,,,,,,,,,,,,,,None,473.32179994200123,None,,,,,,,,,,,,,,,,,,,,,,,,,,,,,,,,470.010705838009,None,470.010705838009,None,right,0,3.309472437002114,470.010705838009,None,,,,,,,,,,,,,,,,,,4,30,M,2021_Apr_09_1755,ldt_en_hi,2021.1.3,1021.5750509267291,
,,,,,,,,,,,,पतल,dival,left,8,,,,,,,,,,,,,0,10,10,60,,,,,,,,,,,,,,,,,None,476.9227374220063,None,,,,,,,,,,,,,,,,,,,,,,,,,,,,,,,,473.8374786120112,None,473.8374786120112,None,left,1,3.0836289059952833,473.8374786120112,None,,,,,,,,,,,,,,,,,,4,30,M,2021_Apr_09_1755,ldt_en_hi,2021.1.3,1021.5750509267291,
,,,,,,,,,,,,गायक,dancer,right,6,,,,,,,,,,,,,0,11,11,18,,,,,,,,,,,,,,,,,None,478.6680514840118,None,,,,,,,,,,,,,,,,,,,,,,,,,,,,,,,,477.43788939900696,None,477.43788939900696,None,right,1,1.2285319410002558,477.43788939900696,None,,,,,,,,,,,,,,,,,,4,30,M,2021_Apr_09_1755,ldt_en_hi,2021.1.3,1021.5750509267291,
,,,,,,,,,,,,मदान,gway,left,8,,,,,,,,,,,,,0,12,12,57,,,,,,,,,,,,,,,,,None,480.64338128799864,None,,,,,,,,,,,,,,,,,,,,,,,,,,,,,,,,479.1841429920023,None,479.1841429920023,None,left,1,1.4576004979899153,479.1841429920023,None,,,,,,,,,,,,,,,,,,4,30,M,2021_Apr_09_1755,ldt_en_hi,2021.1.3,1021.5750509267291,
,,,,,,,,,,,,शेर,lion,right,6,,,,,,,,,,,,,0,13,13,1,,,,,,,,,,,,,,,,,None,482.13480568000523,None,,,,,,,,,,,,,,,,,,,,,,,,,,,,,,,,481.1598465470015,None,481.1598465470015,None,right,1,0.9733758629881777,481.1598465470015,None,,,,,,,,,,,,,,,,,,4,30,M,2021_Apr_09_1755,ldt_en_hi,2021.1.3,1021.5750509267291,
,,,,,,,,,,,,साल,age,right,6,,,,,,,,,,,,,0,14,14,0,,,,,,,,,,,,,,,,,None,484.270997368003,None,,,,,,,,,,,,,,,,,,,,,,,,,,,,,,,,482.63837303400214,None,482.63837303400214,None,right,1,1.631039811996743,482.63837303400214,None,,,,,,,,,,,,,,,,,,4,30,M,2021_Apr_09_1755,ldt_en_hi,2021.1.3,1021.5750509267291,
,,,,,,,,,,,,गहा,chulk,left,8,,,,,,,,,,,,,0,15,15,56,,,,,,,,,,,,,,,,,None,485.91348398099944,None,,,,,,,,,,,,,,,,,,,,,,,,,,,,,,,,484.7750628180074,None,484.7750628180074,None,left,1,1.1368297309963964,484.7750628180074,None,,,,,,,,,,,,,,,,,,4,30,M,2021_Apr_09_1755,ldt_en_hi,2021.1.3,1021.5750509267291,
,,,,,,,,,,,,मछली,ucter,left,10,,,,,,,,,,,,,0,16,16,52,,,,,,,,,,,,,,,,,None,487.5658058140107,None,,,,,,,,,,,,,,,,,,,,,,,,,,,,,,,,486.4334738440084,None,486.4334738440084,None,left,1,1.1307487379963277,486.4334738440084,None,,,,,,,,,,,,,,,,,,4,30,M,2021_Apr_09_1755,ldt_en_hi,2021.1.3,1021.5750509267291,
,,,,,,,,,,,,गाय,valuabzr,left,10,,,,,,,,,,,,,0,17,17,48,,,,,,,,,,,,,,,,,None,489.3117945630074,None,,,,,,,,,,,,,,,,,,,,,,,,,,,,,,,,488.0693940450001,None,488.0693940450001,None,left,1,1.24078669201117,488.0693940450001,None,,,,,,,,,,,,,,,,,,4,30,M,2021_Apr_09_1755,ldt_en_hi,2021.1.3,1021.5750509267291,
,,,,,,,,,,,,आतंकवादी,bomb,right,6,,,,,,,,,,,,,0,18,18,7,,,,,,,,,,,,,,,,,None,491.9337594660028,None,,,,,,,,,,,,,,,,,,,,,,,,,,,,,,,,489.834342940012,None,489.834342940012,None,right,1,2.0977841380081372,489.834342940012,None,,,,,,,,,,,,,,,,,,4,30,M,2021_Apr_09_1755,ldt_en_hi,2021.1.3,1021.5750509267291,
,,,,,,,,,,,,जापान,china,right,6,,,,,,,,,,,,,0,19,19,14,,,,,,,,,,,,,,,,,None,494.4018535570067,None,,,,,,,,,,,,,,,,,,,,,,,,,,,,,,,,492.43747168300615,None,492.43747168300615,None,right,1,1.9625375000032363,492.43747168300615,None,,,,,,,,,,,,,,,,,,4,30,M,2021_Apr_09_1755,ldt_en_hi,2021.1.3,1021.5750509267291,
,,,,,,,,,,,,अनाज,breakfast,right,6,,,,,,,,,,,,,0,20,20,11,,,,,,,,,,,,,,,,,None,496.8317244540085,None,,,,,,,,,,,,,,,,,,,,,,,,,,,,,,,,494.9207128679991,None,494.9207128679991,None,right,1,1.9094245299929753,494.9207128679991,None,,,,,,,,,,,,,,,,,,4,30,M,2021_Apr_09_1755,ldt_en_hi,2021.1.3,1021.5750509267291,
,,,,,,,,,,,,विमान,decision,right,7,,,,,,,,,,,,,0,21,21,31,,,,,,,,,,,,,,,,,None,501.77586039100424,None,,,,,,,,,,,,,,,,,,,,,,,,,,,,,,,,497.35473047300184,None,497.35473047300184,None,left,0,4.419478297000751,497.35473047300184,None,,,,,,,,,,,,,,,,,,4,30,M,2021_Apr_09_1755,ldt_en_hi,2021.1.3,1021.5750509267291,
,,,,,,,,,,,,आतंक,average,right,7,,,,,,,,,,,,,0,22,22,23,,,,,,,,,,,,,,,,,None,503.4557566840085,None,,,,,,,,,,,,,,,,,,,,,,,,,,,,,,,,502.27973920400837,None,502.27973920400837,None,right,1,1.1743965959904017,502.27973920400837,None,,,,,,,,,,,,,,,,,,4,30,M,2021_Apr_09_1755,ldt_en_hi,2021.1.3,1021.5750509267291,
,,,,,,,,,,,,खेती,dollars,right,7,,,,,,,,,,,,,0,23,23,21,,,,,,,,,,,,,,,,,None,505.0453508339997,None,,,,,,,,,,,,,,,,,,,,,,,,,,,,,,,,503.9760957649996,None,503.9760957649996,None,right,1,1.0676638389995787,503.9760957649996,None,,,,,,,,,,,,,,,,,,4,30,M,2021_Apr_09_1755,ldt_en_hi,2021.1.3,1021.5750509267291,
,,,,,,,,,,,,नेता,area,right,7,,,,,,,,,,,,,0,24,24,32,,,,,,,,,,,,,,,,,None,506.8107270949986,None,,,,,,,,,,,,,,,,,,,,,,,,,,,,,,,,505.54933840601007,None,505.54933840601007,None,right,1,1.259639750001952,505.54933840601007,None,,,,,,,,,,,,,,,,,,4,30,M,2021_Apr_09_1755,ldt_en_hi,2021.1.3,1021.5750509267291,
,,,,,,,,,,,,सिपाही,empty,right,7,,,,,,,,,,,,,0,25,25,27,,,,,,,,,,,,,,,,,None,512.2590347369987,None,,,,,,,,,,,,,,,,,,,,,,,,,,,,,,,,507.31453221400443,None,507.31453221400443,None,left,0,4.942917452004622,507.31453221400443,None,,,,,,,,,,,,,,,,,,4,30,M,2021_Apr_09_1755,ldt_en_hi,2021.1.3,1021.5750509267291,
,,,,,,,,,,,,असमल,beaufifsl,left,8,,,,,,,,,,,,,0,26,26,66,,,,,,,,,,,,,,,,,None,514.41248059801,None,,,,,,,,,,,,,,,,,,,,,,,,,,,,,,,,512.7629177890049,None,512.7629177890049,None,left,1,1.6479416160000255,512.7629177890049,None,,,,,,,,,,,,,,,,,,4,30,M,2021_Apr_09_1755,ldt_en_hi,2021.1.3,1021.5750509267291,
,,,,,,,,,,,,लड़ाकू,boxer,right,6,,,,,,,,,,,,,0,27,27,9,,,,,,,,,,,,,,,,,None,517.6324090220005,None,,,,,,,,,,,,,,,,,,,,,,,,,,,,,,,,514.9224739820056,None,514.9224739820056,None,right,1,2.7083419080008753,514.9224739820056,None,,,,,,,,,,,,,,,,,,4,30,M,2021_Apr_09_1755,ldt_en_hi,2021.1.3,1021.5750509267291,
,,,,,,,,,,,,गाड़ी,auto,right,6,,,,,,,,,,,,,0,28,28,2,,,,,,,,,,,,,,,,,None,519.7579636730079,None,,,,,,,,,,,,,,,,,,,,,,,,,,,,,,,,518.1360229040001,None,518.1360229040001,None,right,1,1.620355405000737,518.1360229040001,None,,,,,,,,,,,,,,,,,,4,30,M,2021_Apr_09_1755,ldt_en_hi,2021.1.3,1021.5750509267291,
,,,,,,,,,,,,जापान,cheat,right,7,,,,,,,,,,,,,0,29,29,22,,,,,,,,,,,,,,,,,None,521.1599096880091,None,,,,,,,,,,,,,,,,,,,,,,,,,,,,,,,,520.2618437019992,None,520.2618437019992,None,right,1,0.8964891019859351,520.2618437019992,None,,,,,,,,,,,,,,,,,,4,30,M,2021_Apr_09_1755,ldt_en_hi,2021.1.3,1021.5750509267291,
,,,,,,,,,,,,केला,diary,right,7,,,,,,,,,,,,,0,30,30,37,,,,,,,,,,,,,,,,,None,522.4077732620062,None,,,,,,,,,,,,,,,,,,,,,,,,,,,,,,,,521.663433795009,None,521.663433795009,None,right,1,0.7427083420043346,521.663433795009,None,,,,,,,,,,,,,,,,,,4,30,M,2021_Apr_09_1755,ldt_en_hi,2021.1.3,1021.5750509267291,
,,,,,,,,,,,,अपरा,blackboard,left,9,,,,,,,,,,,,,0,31,31,75,,,,,,,,,,,,,,,,,None,524.3505372580112,None,,,,,,,,,,,,,,,,,,,,,,,,,,,,,,,,522.9116023420065,None,522.9116023420065,None,right,0,1.4373477250046562,522.9116023420065,None,,,,,,,,,,,,,,,,,,4,30,M,2021_Apr_09_1755,ldt_en_hi,2021.1.3,1021.5750509267291,
,,,,,,,,,,,,परावान,octopus,left,9,,,,,,,,,,,,,0,32,32,69,,,,,,,,,,,,,,,,,None,526.5446144020098,None,,,,,,,,,,,,,,,,,,,,,,,,,,,,,,,,524.8545019599987,None,524.8545019599987,None,right,0,1.6881798029935453,524.8545019599987,None,,,,,,,,,,,,,,,,,,4,30,M,2021_Apr_09_1755,ldt_en_hi,2021.1.3,1021.5750509267291,
,,,,,,,,,,,,महंगा,cheap,right,6,,,,,,,,,,,,,0,33,33,13,,,,,,,,,,,,,,,,,None,527.9404622849979,None,,,,,,,,,,,,,,,,,,,,,,,,,,,,,,,,527.0480522730068,None,527.0480522730068,None,right,1,0.8908225909981411,527.0480522730068,None,,,,,,,,,,,,,,,,,,4,30,M,2021_Apr_09_1755,ldt_en_hi,2021.1.3,1021.5750509267291,
,,,,,,,,,,,,असमल,rug,left,9,,,,,,,,,,,,,0,34,34,74,,,,,,,,,,,,,,,,,None,529.6307141560101,None,,,,,,,,,,,,,,,,,,,,,,,,,,,,,,,,528.4439917390118,None,528.4439917390118,None,right,0,1.1851051730045583,528.4439917390118,None,,,,,,,,,,,,,,,,,,4,30,M,2021_Apr_09_1755,ldt_en_hi,2021.1.3,1021.5750509267291,
,,,,,,,,,,,,भगवान,temple,right,6,,,,,,,,,,,,,0,35,35,15,,,,,,,,,,,,,,,,,None,531.1505331759981,None,,,,,,,,,,,,,,,,,,,,,,,,,,,,,,,,530.1341768830025,None,530.1341768830025,None,right,1,1.0147728300071321,530.1341768830025,None,,,,,,,,,,,,,,,,,,4,30,M,2021_Apr_09_1755,ldt_en_hi,2021.1.3,1021.5750509267291,
,,,,,,,,,,,,नक,bnat,left,8,,,,,,,,,,,,,0,36,36,65,,,,,,,,,,,,,,,,,None,532.3588718320098,None,,,,,,,,,,,,,,,,,,,,,,,,,,,,,,,,531.6539550470043,None,531.6539550470043,None,right,0,0.7033365560055245,531.6539550470043,None,,,,,,,,,,,,,,,,,,4,30,M,2021_Apr_09_1755,ldt_en_hi,2021.1.3,1021.5750509267291,
,,,,,,,,,,,,गेंद,bat,right,6,,,,,,,,,,,,,0,37,37,4,,,,,,,,,,,,,,,,,None,533.8300914830033,None,,,,,,,,,,,,,,,,,,,,,,,,,,,,,,,,532.8625913200085,None,532.8625913200085,None,right,1,0.9658950309967622,532.8625913200085,None,,,,,,,,,,,,,,,,,,4,30,M,2021_Apr_09_1755,ldt_en_hi,2021.1.3,1021.5750509267291,
,,,,,,,,,,,,बहस,blaokbonvd,left,10,,,,,,,,,,,,,0,38,38,45,,,,,,,,,,,,,,,,,None,535.9043927120074,None,,,,,,,,,,,,,,,,,,,,,,,,,,,,,,,,534.3456765540031,None,534.3456765540031,None,left,1,1.5571112730103778,534.3456765540031,None,,,,,,,,,,,,,,,,,,4,30,M,2021_Apr_09_1755,ldt_en_hi,2021.1.3,1021.5750509267291,
,,,,,,,,,,,,नाजु,ceok,left,8,,,,,,,,,,,,,0,39,39,58,,,,,,,,,,,,,,,,,None,537.525064240006,None,,,,,,,,,,,,,,,,,,,,,,,,,,,,,,,,536.4142939960002,None,536.4142939960002,None,left,1,1.1091472589905607,536.4142939960002,None,,,,,,,,,,,,,,,,,,4,30,M,2021_Apr_09_1755,ldt_en_hi,2021.1.3,1021.5750509267291,
,,,,,,,,,,,,सलाह,mabapine,left,10,,,,,,,,,,,,,0,40,40,42,,,,,,,,,,,,,,,,,None,541.2383280840004,None,,,,,,,,,,,,,,,,,,,,,,,,,,,,,,,,538.0289048340055,None,538.0289048340055,None,left,1,3.2078391750110313,538.0289048340055,None,,,,,,,,,,,,,,,,,,4,30,M,2021_Apr_09_1755,ldt_en_hi,2021.1.3,1021.5750509267291,
,,,,,,,,,,,,पैसे,cash,right,6,,,,,,,,,,,,,0,41,41,12,,,,,,,,,,,,,,,,,None,542.7792899170017,None,,,,,,,,,,,,,,,,,,,,,,,,,,,,,,,,541.7474386500107,None,541.7474386500107,None,right,1,1.0301664159924258,541.7474386500107,None,,,,,,,,,,,,,,,,,,4,30,M,2021_Apr_09_1755,ldt_en_hi,2021.1.3,1021.5750509267291,
,,,,,,,,,,,,घर,blow,right,7,,,,,,,,,,,,,0,42,42,28,,,,,,,,,,,,,,,,,None,544.4532493160077,None,,,,,,,,,,,,,,,,,,,,,,,,,,,,,,,,543.2948661140108,None,543.2948661140108,None,right,1,1.156797222996829,543.2948661140108,None,,,,,,,,,,,,,,,,,,4,30,M,2021_Apr_09_1755,ldt_en_hi,2021.1.3,1021.5750509267291,
,,,,,,,,,,,,हानि,deaf,right,7,,,,,,,,,,,,,0,43,43,39,,,,,,,,,,,,,,,,,None,545.8484220820101,None,,,,,,,,,,,,,,,,,,,,,,,,,,,,,,,,544.9567254180001,None,544.9567254180001,None,left,0,0.8898376240103971,544.9567254180001,None,,,,,,,,,,,,,,,,,,4,30,M,2021_Apr_09_1755,ldt_en_hi,2021.1.3,1021.5750509267291,
,,,,,,,,,,,,वन,chaos,right,7,,,,,,,,,,,,,0,44,44,33,,,,,,,,,,,,,,,,,None,547.4851854950102,None,,,,,,,,,,,,,,,,,,,,,,,,,,,,,,,,546.352582544001,None,546.352582544001,None,right,1,1.1310053290071664,546.352582544001,None,,,,,,,,,,,,,,,,,,4,30,M,2021_Apr_09_1755,ldt_en_hi,2021.1.3,1021.5750509267291,
,,,,,,,,,,,,कंबल,poldcemps,left,10,,,,,,,,,,,,,0,45,45,46,,,,,,,,,,,,,,,,,None,549.6970379800041,None,,,,,,,,,,,,,,,,,,,,,,,,,,,,,,,,547.9892154760018,None,547.9892154760018,None,left,1,1.7062428150093183,547.9892154760018,None,,,,,,,,,,,,,,,,,,4,30,M,2021_Apr_09_1755,ldt_en_hi,2021.1.3,1021.5750509267291,
,,,,,,,,,,,,पागल,crazy,right,6,,,,,,,,,,,,,0,46,46,16,,,,,,,,,,,,,,,,,None,551.0716049790062,None,,,,,,,,,,,,,,,,,,,,,,,,,,,,,,,,550.2007604820101,None,550.2007604820101,None,right,1,0.8692403349996312,550.2007604820101,None,,,,,,,,,,,,,,,,,,4,30,M,2021_Apr_09_1755,ldt_en_hi,2021.1.3,1021.5750509267291,
,,,,,,,,,,,,भीड़,crowd,right,6,,,,,,,,,,,,,0,47,47,17,,,,,,,,,,,,,,,,,None,552.8157977090013,None,,,,,,,,,,,,,,,,,,,,,,,,,,,,,,,,551.5753463779984,None,551.5753463779984,None,right,1,1.2388473989994964,551.5753463779984,None,,,,,,,,,,,,,,,,,,4,30,M,2021_Apr_09_1755,ldt_en_hi,2021.1.3,1021.5750509267291,
,,,,,,,,,,,,यूोप,builde,left,8,,,,,,,,,,,,,0,48,48,55,,,,,,,,,,,,,,,,,None,554.4687230630079,None,,,,,,,,,,,,,,,,,,,,,,,,,,,,,,,,553.3321643570089,None,553.3321643570089,None,left,1,1.1349385459907353,553.3321643570089,None,,,,,,,,,,,,,,,,,,4,30,M,2021_Apr_09_1755,ldt_en_hi,2021.1.3,1021.5750509267291,
,,,,,,,,,,,,बातचीत,busg,left,10,,,,,,,,,,,,,0,49,49,43,,,,,,,,,,,,,,,,,None,555.7448937120062,None,,,,,,,,,,,,,,,,,,,,,,,,,,,,,,,,554.97246133101,None,554.97246133101,None,right,0,0.7708163719944423,554.97246133101,None,,,,,,,,,,,,,,,,,,4,30,M,2021_Apr_09_1755,ldt_en_hi,2021.1.3,1021.5750509267291,
,,,,,,,,,,,,फूल,suggeyf,left,10,,,,,,,,,,,,,0,50,50,53,,,,,,,,,,,,,,,,,None,557.3375580150023,None,,,,,,,,,,,,,,,,,,,,,,,,,,,,,,,,556.2635753700015,None,556.2635753700015,None,left,1,1.072357181008556,556.2635753700015,None,,,,,,,,,,,,,,,,,,4,30,M,2021_Apr_09_1755,ldt_en_hi,2021.1.3,1021.5750509267291,
,,,,,,,,,,,,गुफा,perigrm,left,10,,,,,,,,,,,,,0,51,51,51,,,,,,,,,,,,,,,,,None,560.0616102330096,None,,,,,,,,,,,,,,,,,,,,,,,,,,,,,,,,557.841412171998,None,557.841412171998,None,left,1,2.218572485013283,557.841412171998,None,,,,,,,,,,,,,,,,,,4,30,M,2021_Apr_09_1755,ldt_en_hi,2021.1.3,1021.5750509267291,
,,,,,,,,,,,,बाइन,atnton,left,8,,,,,,,,,,,,,0,52,52,61,,,,,,,,,,,,,,,,,None,561.7366854940046,None,,,,,,,,,,,,,,,,,,,,,,,,,,,,,,,,560.5778284960106,None,560.5778284960106,None,left,1,1.1569810669898288,560.5778284960106,None,,,,,,,,,,,,,,,,,,4,30,M,2021_Apr_09_1755,ldt_en_hi,2021.1.3,1021.5750509267291,
,,,,,,,,,,,,अभिनय,disbhvmeve,left,10,,,,,,,,,,,,,0,53,53,41,,,,,,,,,,,,,,,,,None,563.4057730070053,None,,,,,,,,,,,,,,,,,,,,,,,,,,,,,,,,562.2404427790025,None,562.2404427790025,None,left,1,1.1634992140025133,562.2404427790025,None,,,,,,,,,,,,,,,,,,4,30,M,2021_Apr_09_1755,ldt_en_hi,2021.1.3,1021.5750509267291,
,,,,,,,,,,,,अजमदा,tricycle,left,9,,,,,,,,,,,,,0,54,54,72,,,,,,,,,,,,,,,,,None,568.6387220860051,None,,,,,,,,,,,,,,,,,,,,,,,,,,,,,,,,563.9098257560108,None,563.9098257560108,None,left,1,4.727270088013029,563.9098257560108,None,,,,,,,,,,,,,,,,,,4,30,M,2021_Apr_09_1755,ldt_en_hi,2021.1.3,1021.5750509267291,
,,,,,,,,,,,,संट,kitchen,left,9,,,,,,,,,,,,,0,55,55,76,,,,,,,,,,,,,,,,,None,570.9518473030039,None,,,,,,,,,,,,,,,,,,,,,,,,,,,,,,,,569.1427661740017,None,569.1427661740017,None,right,0,1.8074636969977291,569.1427661740017,None,,,,,,,,,,,,,,,,,,4,30,M,2021_Apr_09_1755,ldt_en_hi,2021.1.3,1021.5750509267291,
,,,,,,,,,,,,सावधान,capmpiwity,left,10,,,,,,,,,,,,,0,56,56,50,,,,,,,,,,,,,,,,,None,572.6299082510086,None,,,,,,,,,,,,,,,,,,,,,,,,,,,,,,,,571.467936911009,None,571.467936911009,None,left,1,1.1603457999881357,571.467936911009,None,,,,,,,,,,,,,,,,,,4,30,M,2021_Apr_09_1755,ldt_en_hi,2021.1.3,1021.5750509267291,
,,,,,,,,,,,,संट,subtraction,left,9,,,,,,,,,,,,,0,57,57,67,,,,,,,,,,,,,,,,,None,577.540793253007,None,,,,,,,,,,,,,,,,,,,,,,,,,,,,,,,,573.133477498006,None,573.133477498006,None,right,0,4.405711393992533,573.133477498006,None,,,,,,,,,,,,,,,,,,4,30,M,2021_Apr_09_1755,ldt_en_hi,2021.1.3,1021.5750509267291,
,,,,,,,,,,,,तीर,bow,right,6,,,,,,,,,,,,,0,58,58,8,,,,,,,,,,,,,,,,,None,578.8964061620063,None,,,,,,,,,,,,,,,,,,,,,,,,,,,,,,,,578.0444418410043,None,578.0444418410043,None,right,1,0.8502470050007105,578.0444418410043,None,,,,,,,,,,,,,,,,,,4,30,M,2021_Apr_09_1755,ldt_en_hi,2021.1.3,1021.5750509267291,
,,,,,,,,,,,,टराव,lobster,left,9,,,,,,,,,,,,,0,59,59,78,,,,,,,,,,,,,,,,,None,580.9706970050029,None,,,,,,,,,,,,,,,,,,,,,,,,,,,,,,,,579.400320544999,None,579.400320544999,None,right,0,1.56873324199114,579.400320544999,None,,,,,,,,,,,,,,,,,,4,30,M,2021_Apr_09_1755,ldt_en_hi,2021.1.3,1021.5750509267291,
,,,,,,,,,,,,मगरम,hodker,left,8,,,,,,,,,,,,,0,60,60,54,,,,,,,,,,,,,,,,,None,583.7729254440055,None,,,,,,,,,,,,,,,,,,,,,,,,,,,,,,,,581.4742356380011,None,581.4742356380011,None,left,1,2.296829829007038,581.4742356380011,None,,,,,,,,,,,,,,,,,,4,30,M,2021_Apr_09_1755,ldt_en_hi,2021.1.3,1021.5750509267291,
,,,,,,,,,,,,मैदान,blush,right,7,,,,,,,,,,,,,0,61,61,26,,,,,,,,,,,,,,,,,None,585.5371226620045,None,,,,,,,,,,,,,,,,,,,,,,,,,,,,,,,,584.2763886480097,None,584.2763886480097,None,right,1,1.2591578630090225,584.2763886480097,None,,,,,,,,,,,,,,,,,,4,30,M,2021_Apr_09_1755,ldt_en_hi,2021.1.3,1021.5750509267291,
,,,,,,,,,,,,अजमदा,uttac,left,8,,,,,,,,,,,,,0,62,62,62,,,,,,,,,,,,,,,,,None,587.4378129690012,None,,,,,,,,,,,,,,,,,,,,,,,,,,,,,,,,586.0408644889976,None,586.0408644889976,None,left,1,1.3953292730002431,586.0408644889976,None,,,,,,,,,,,,,,,,,,4,30,M,2021_Apr_09_1755,ldt_en_hi,2021.1.3,1021.5750509267291,
,,,,,,,,,,,,सुंदरता,beast,right,6,,,,,,,,,,,,,0,63,63,5,,,,,,,,,,,,,,,,,None,589.0702191620076,None,,,,,,,,,,,,,,,,,,,,,,,,,,,,,,,,587.9418921140023,None,587.9418921140023,None,right,1,1.1267290510004386,587.9418921140023,None,,,,,,,,,,,,,,,,,,4,30,M,2021_Apr_09_1755,ldt_en_hi,2021.1.3,1021.5750509267291,
,,,,,,,,,,,,अनुबध,leab,left,8,,,,,,,,,,,,,0,64,64,59,,,,,,,,,,,,,,,,,None,591.1277560599992,None,,,,,,,,,,,,,,,,,,,,,,,,,,,,,,,,589.574464838006,None,589.574464838006,None,right,0,1.5516259799915133,589.574464838006,None,,,,,,,,,,,,,,,,,,4,30,M,2021_Apr_09_1755,ldt_en_hi,2021.1.3,1021.5750509267291,
,,,,,,,,,,,,मेंढक,doe,right,7,,,,,,,,,,,,,0,65,65,36,,,,,,,,,,,,,,,,,None,592.5500849200034,None,,,,,,,,,,,,,,,,,,,,,,,,,,,,,,,,591.6315960200009,None,591.6315960200009,None,right,1,0.9166877569950884,591.6315960200009,None,,,,,,,,,,,,,,,,,,4,30,M,2021_Apr_09_1755,ldt_en_hi,2021.1.3,1021.5750509267291,
,,,,,,,,,,,,नल,ltbster,left,10,,,,,,,,,,,,,0,66,66,47,,,,,,,,,,,,,,,,,None,593.7585304399981,None,,,,,,,,,,,,,,,,,,,,,,,,,,,,,,,,593.0548986530048,None,593.0548986530048,None,right,0,0.7020300919975853,593.0548986530048,None,,,,,,,,,,,,,,,,,,4,30,M,2021_Apr_09_1755,ldt_en_hi,2021.1.3,1021.5750509267291,
,,,,,,,,,,,,शहनाई,decay,right,7,,,,,,,,,,,,,0,67,67,30,,,,,,,,,,,,,,,,,None,596.5210692620021,None,,,,,,,,,,,,,,,,,,,,,,,,,,,,,,,,594.277962764012,None,594.277962764012,None,right,1,2.2412263250007527,594.277962764012,None,,,,,,,,,,,,,,,,,,4,30,M,2021_Apr_09_1755,ldt_en_hi,2021.1.3,1021.5750509267291,
,,,,,,,,,,,,कोमल,cure,right,7,,,,,,,,,,,,,0,68,68,34,,,,,,,,,,,,,,,,,None,597.6630360850104,None,,,,,,,,,,,,,,,,,,,,,,,,,,,,,,,,597.024811263007,None,597.024811263007,None,right,1,0.6364449750108179,597.024811263007,None,,,,,,,,,,,,,,,,,,4,30,M,2021_Apr_09_1755,ldt_en_hi,2021.1.3,1021.5750509267291,
,,,,,,,,,,,,अभिनय,calm,right,7,,,,,,,,,,,,,0,69,69,35,,,,,,,,,,,,,,,,,None,599.3985756000038,None,,,,,,,,,,,,,,,,,,,,,,,,,,,,,,,,598.1667173480091,None,598.1667173480091,None,right,1,1.2302482139930362,598.1667173480091,None,,,,,,,,,,,,,,,,,,4,30,M,2021_Apr_09_1755,ldt_en_hi,2021.1.3,1021.5750509267291,
,,,,,,,,,,,,जोकर,eyes,right,7,,,,,,,,,,,,,0,70,70,38,,,,,,,,,,,,,,,,,None,600.747742713007,None,,,,,,,,,,,,,,,,,,,,,,,,,,,,,,,,599.9027473300084,None,599.9027473300084,None,right,1,0.8433883479883661,599.9027473300084,None,,,,,,,,,,,,,,,,,,4,30,M,2021_Apr_09_1755,ldt_en_hi,2021.1.3,1021.5750509267291,
,,,,,,,,,,,,केल,cauliflower,left,9,,,,,,,,,,,,,0,71,71,73,,,,,,,,,,,,,,,,,None,601.9333470460115,None,,,,,,,,,,,,,,,,,,,,,,,,,,,,,,,,601.2512553130073,None,601.2512553130073,None,right,0,0.6804370159952668,601.2512553130073,None,,,,,,,,,,,,,,,,,,4,30,M,2021_Apr_09_1755,ldt_en_hi,2021.1.3,1021.5750509267291,
,,,,,,,,,,,,सावधान,caklqblower,left,10,,,,,,,,,,,,,0,72,72,44,,,,,,,,,,,,,,,,,None,603.1280950530054,None,,,,,,,,,,,,,,,,,,,,,,,,,,,,,,,,602.4374347030098,None,602.4374347030098,None,right,0,0.6887759480014211,602.4374347030098,None,,,,,,,,,,,,,,,,,,4,30,M,2021_Apr_09_1755,ldt_en_hi,2021.1.3,1021.5750509267291,
,,,,,,,,,,,,वकी,averake,left,8,,,,,,,,,,,,,0,73,73,63,,,,,,,,,,,,,,,,,None,605.1374975070066,None,,,,,,,,,,,,,,,,,,,,,,,,,,,,,,,,603.6314341690013,None,603.6314341690013,None,left,1,1.5044807869999204,603.6314341690013,None,,,,,,,,,,,,,,,,,,4,30,M,2021_Apr_09_1755,ldt_en_hi,2021.1.3,1021.5750509267291,
,,,,,,,,,,,,मगरम,bow,left,9,,,,,,,,,,,,,0,74,74,70,,,,,,,,,,,,,,,,,None,607.5218307970063,None,,,,,,,,,,,,,,,,,,,,,,,,,,,,,,,,605.6412913439999,None,605.6412913439999,None,left,1,1.8789571689994773,605.6412913439999,None,,,,,,,,,,,,,,,,,,4,30,M,2021_Apr_09_1755,ldt_en_hi,2021.1.3,1021.5750509267291,
,,,,,,,,,,,,यूोप,mustache,left,9,,,,,,,,,,,,,0,75,75,71,,,,,,,,,,,,,,,,,None,611.2738587950007,None,,,,,,,,,,,,,,,,,,,,,,,,,,,,,,,,608.0257029409986,None,608.0257029409986,None,left,1,3.246529794007074,608.0257029409986,None,,,,,,,,,,,,,,,,,,4,30,M,2021_Apr_09_1755,ldt_en_hi,2021.1.3,1021.5750509267291,
,,,,,,,,,,,,परावान,valuable,left,9,,,,,,,,,,,,,0,76,76,79,,,,,,,,,,,,,,,,,None,612.9185364660079,None,,,,,,,,,,,,,,,,,,,,,,,,,,,,,,,,611.7780486850097,None,611.7780486850097,None,right,0,1.1389041939983144,611.7780486850097,None,,,,,,,,,,,,,,,,,,4,30,M,2021_Apr_09_1755,ldt_en_hi,2021.1.3,1021.5750509267291,
,,,,,,,,,,,,भावना,employer,right,7,,,,,,,,,,,,,0,77,77,24,,,,,,,,,,,,,,,,,None,614.1281515110022,None,,,,,,,,,,,,,,,,,,,,,,,,,,,,,,,,613.4220502420067,None,613.4220502420067,None,right,1,0.7044718519900925,613.4220502420067,None,,,,,,,,,,,,,,,,,,4,30,M,2021_Apr_09_1755,ldt_en_hi,2021.1.3,1021.5750509267291,
,,,,,,,,,,,,गणित,biology,right,6,,,,,,,,,,,,,0,78,78,6,,,,,,,,,,,,,,,,,None,615.8657460289978,None,,,,,,,,,,,,,,,,,,,,,,,,,,,,,,,,614.646344933004,None,614.646344933004,None,right,1,1.2175529149972135,614.646344933004,None,,,,,,,,,,,,,,,,,,4,30,M,2021_Apr_09_1755,ldt_en_hi,2021.1.3,1021.5750509267291,
,,,,,,,,,,,,खोज,expensive,right,7,,,,,,,,,,,,,0,79,79,29,,,,,,,,,,,,,,,,,None,617.3610089580034,None,,,,,,,,,,,,,,,,,,,,,,,,,,,,,,,,616.3692167030094,None,616.3692167030094,None,right,1,0.9901564729952952,616.3692167030094,None,,,,,,,,,,,,,,,,,,4,30,M,2021_Apr_09_1755,ldt_en_hi,2021.1.3,1021.5750509267291,
,,,,,,,,,,,,लड़की,baby,right,6,,,,,,,,,,,,,1,0,80,3,,,,,,,,,,,,,,,,,None,618.3531001980009,None,,,,,,,,,,,,,,,,,,,,,,,,,,,,,,,,617.8651352140005,None,617.8651352140005,None,right,1,0.48633899800188374,617.8651352140005,None,,,,,,,,,,,,,,,,,,4,30,M,2021_Apr_09_1755,ldt_en_hi,2021.1.3,1021.5750509267291,
,,,,,,,,,,,,सुंदरता,beast,right,6,,,,,,,,,,,,,1,1,81,5,,,,,,,,,,,,,,,,,None,619.6394798620022,None,,,,,,,,,,,,,,,,,,,,,,,,,,,,,,,,618.8568077870004,None,618.8568077870004,None,right,1,0.7810406720091123,618.8568077870004,None,,,,,,,,,,,,,,,,,,4,30,M,2021_Apr_09_1755,ldt_en_hi,2021.1.3,1021.5750509267291,
,,,,,,,,,,,,गणित,biology,right,6,,,,,,,,,,,,,1,2,82,6,,,,,,,,,,,,,,,,,None,620.9112201130047,None,,,,,,,,,,,,,,,,,,,,,,,,,,,,,,,,620.1428867700015,None,620.1428867700015,None,right,1,0.7667552799975965,620.1428867700015,None,,,,,,,,,,,,,,,,,,4,30,M,2021_Apr_09_1755,ldt_en_hi,2021.1.3,1021.5750509267291,
,,,,,,,,,,,,मैदान,blush,right,7,,,,,,,,,,,,,1,3,83,26,,,,,,,,,,,,,,,,,None,622.0922118540038,None,,,,,,,,,,,,,,,,,,,,,,,,,,,,,,,,621.4147319920012,None,621.4147319920012,None,right,1,0.6758018819964491,621.4147319920012,None,,,,,,,,,,,,,,,,,,4,30,M,2021_Apr_09_1755,ldt_en_hi,2021.1.3,1021.5750509267291,
,,,,,,,,,,,,गेंद,bat,right,6,,,,,,,,,,,,,1,4,84,4,,,,,,,,,,,,,,,,,None,623.1399790290016,None,,,,,,,,,,,,,,,,,,,,,,,,,,,,,,,,622.5962193040032,None,622.5962193040032,None,right,1,0.5421102959953714,622.5962193040032,None,,,,,,,,,,,,,,,,,,4,30,M,2021_Apr_09_1755,ldt_en_hi,2021.1.3,1021.5750509267291,
,,,,,,,,,,,,पतल,dival,left,8,,,,,,,,,,,,,1,5,85,60,,,,,,,,,,,,,,,,,None,624.4412823559978,None,,,,,,,,,,,,,,,,,,,,,,,,,,,,,,,,623.6438468220003,None,623.6438468220003,None,right,0,0.7955495520000113,623.6438468220003,None,,,,,,,,,,,,,,,,,,4,30,M,2021_Apr_09_1755,ldt_en_hi,2021.1.3,1021.5750509267291,
,,,,,,,,,,,,गाय,valuabzr,left,10,,,,,,,,,,,,,1,6,86,48,,,,,,,,,,,,,,,,,None,626.1287687650038,None,,,,,,,,,,,,,,,,,,,,,,,,,,,,,,,,624.9454233680008,None,624.9454233680008,None,left,1,1.1814651879976736,624.9454233680008,None,,,,,,,,,,,,,,,,,,4,30,M,2021_Apr_09_1755,ldt_en_hi,2021.1.3,1021.5750509267291,
,,,,,,,,,,,,खेती,dollars,right,7,,,,,,,,,,,,,1,7,87,21,,,,,,,,,,,,,,,,,None,627.6261700840114,None,,,,,,,,,,,,,,,,,,,,,,,,,,,,,,,,626.6329439560068,None,626.6329439560068,None,right,1,0.9915803839976434,626.6329439560068,None,,,,,,,,,,,,,,,,,,4,30,M,2021_Apr_09_1755,ldt_en_hi,2021.1.3,1021.5750509267291,
,,,,,,,,,,,,बहस,blaokbonvd,left,10,,,,,,,,,,,,,1,8,88,45,,,,,,,,,,,,,,,,,None,628.9979534450104,None,,,,,,,,,,,,,,,,,,,,,,,,,,,,,,,,628.1297554530029,None,628.1297554530029,None,left,1,0.8665832819970092,628.1297554530029,None,,,,,,,,,,,,,,,,,,4,30,M,2021_Apr_09_1755,ldt_en_hi,2021.1.3,1021.5750509267291,
,,,,,,,,,,,,पैसे,cash,right,6,,,,,,,,,,,,,1,9,89,12,,,,,,,,,,,,,,,,,None,630.1987471080065,None,,,,,,,,,,,,,,,,,,,,,,,,,,,,,,,,629.5022652309999,None,629.5022652309999,None,right,1,0.6949026639922522,629.5022652309999,None,,,,,,,,,,,,,,,,,,4,30,M,2021_Apr_09_1755,ldt_en_hi,2021.1.3,1021.5750509267291,
,,,,,,,,,,,,मदान,gway,left,8,,,,,,,,,,,,,1,10,90,57,,,,,,,,,,,,,,,,,None,631.7366470880079,None,,,,,,,,,,,,,,,,,,,,,,,,,,,,,,,,630.702325197999,None,630.702325197999,None,left,1,1.0327178620063933,630.702325197999,None,,,,,,,,,,,,,,,,,,4,30,M,2021_Apr_09_1755,ldt_en_hi,2021.1.3,1021.5750509267291,
,,,,,,,,,,,,केल,cauliflower,left,9,,,,,,,,,,,,,1,11,91,73,,,,,,,,,,,,,,,,,None,633.295893211005,None,,,,,,,,,,,,,,,,,,,,,,,,,,,,,,,,632.2407022270054,None,632.2407022270054,None,right,0,1.0535696120059583,632.2407022270054,None,,,,,,,,,,,,,,,,,,4,30,M,2021_Apr_09_1755,ldt_en_hi,2021.1.3,1021.5750509267291,
,,,,,,,,,,,,बाइन,atnton,left,8,,,,,,,,,,,,,1,12,92,61,,,,,,,,,,,,,,,,,None,635.1387687310053,None,,,,,,,,,,,,,,,,,,,,,,,,,,,,,,,,633.799612777002,None,633.799612777002,None,left,1,1.3375190869992366,633.799612777002,None,,,,,,,,,,,,,,,,,,4,30,M,2021_Apr_09_1755,ldt_en_hi,2021.1.3,1021.5750509267291,
,,,,,,,,,,,,रात,day,right,6,,,,,,,,,,,,,1,13,93,19,,,,,,,,,,,,,,,,,None,636.4724718030047,None,,,,,,,,,,,,,,,,,,,,,,,,,,,,,,,,635.6430670260015,None,635.6430670260015,None,right,1,0.8277677159931045,635.6430670260015,None,,,,,,,,,,,,,,,,,,4,30,M,2021_Apr_09_1755,ldt_en_hi,2021.1.3,1021.5750509267291,
,,,,,,,,,,,,अजमदा,tricycle,left,9,,,,,,,,,,,,,1,14,94,72,,,,,,,,,,,,,,,,,None,640.6284899530001,None,,,,,,,,,,,,,,,,,,,,,,,,,,,,,,,,636.9765190540056,None,636.9765190540056,None,right,0,3.650278116008849,636.9765190540056,None,,,,,,,,,,,,,,,,,,4,30,M,2021_Apr_09_1755,ldt_en_hi,2021.1.3,1021.5750509267291,
,,,,,,,,,,,,आतंकवादी,bomb,right,6,,,,,,,,,,,,,1,15,95,7,,,,,,,,,,,,,,,,,None,641.9476438790007,None,,,,,,,,,,,,,,,,,,,,,,,,,,,,,,,,641.1323653880099,None,641.1323653880099,None,right,1,0.8136870720045408,641.1323653880099,None,,,,,,,,,,,,,,,,,,4,30,M,2021_Apr_09_1755,ldt_en_hi,2021.1.3,1021.5750509267291,
,,,,,,,,,,,,कोमल,cure,right,7,,,,,,,,,,,,,1,16,96,34,,,,,,,,,,,,,,,,,None,643.2277853640117,None,,,,,,,,,,,,,,,,,,,,,,,,,,,,,,,,642.45155487601,None,642.45155487601,None,right,1,0.774628108003526,642.45155487601,None,,,,,,,,,,,,,,,,,,4,30,M,2021_Apr_09_1755,ldt_en_hi,2021.1.3,1021.5750509267291,
,,,,,,,,,,,,नेता,area,right,7,,,,,,,,,,,,,1,17,97,32,,,,,,,,,,,,,,,,,None,644.565965701011,None,,,,,,,,,,,,,,,,,,,,,,,,,,,,,,,,643.7315966890019,None,643.7315966890019,None,right,1,0.8327485100016929,643.7315966890019,None,,,,,,,,,,,,,,,,,,4,30,M,2021_Apr_09_1755,ldt_en_hi,2021.1.3,1021.5750509267291,
,,,,,,,,,,,,अनुबध,leab,left,8,,,,,,,,,,,,,1,18,98,59,,,,,,,,,,,,,,,,,None,645.8045087450009,None,,,,,,,,,,,,,,,,,,,,,,,,,,,,,,,,645.0700329310057,None,645.0700329310057,None,right,0,0.7328462920122547,645.0700329310057,None,,,,,,,,,,,,,,,,,,4,30,M,2021_Apr_09_1755,ldt_en_hi,2021.1.3,1021.5750509267291,
,,,,,,,,,,,,अभिनय,calm,right,7,,,,,,,,,,,,,1,19,99,35,,,,,,,,,,,,,,,,,None,647.1172349690023,None,,,,,,,,,,,,,,,,,,,,,,,,,,,,,,,,646.3081140560098,None,646.3081140560098,None,right,1,0.8072974450042238,646.3081140560098,None,,,,,,,,,,,,,,,,,,4,30,M,2021_Apr_09_1755,ldt_en_hi,2021.1.3,1021.5750509267291,
,,,,,,,,,,,,गाजर,dasewn,left,10,,,,,,,,,,,,,1,20,100,49,,,,,,,,,,,,,,,,,None,648.3169523620018,None,,,,,,,,,,,,,,,,,,,,,,,,,,,,,,,,647.620719893006,None,647.620719893006,None,right,0,0.6946297090034932,647.620719893006,None,,,,,,,,,,,,,,,,,,4,30,M,2021_Apr_09_1755,ldt_en_hi,2021.1.3,1021.5750509267291,
,,,,,,,,,,,,घर,blow,right,7,,,,,,,,,,,,,1,21,101,28,,,,,,,,,,,,,,,,,None,649.635854068998,None,,,,,,,,,,,,,,,,,,,,,,,,,,,,,,,,648.8210980800068,None,648.8210980800068,None,right,1,0.8128836679970846,648.8210980800068,None,,,,,,,,,,,,,,,,,,4,30,M,2021_Apr_09_1755,ldt_en_hi,2021.1.3,1021.5750509267291,
,,,,,,,,,,,,टराव,lobster,left,9,,,,,,,,,,,,,1,22,102,78,,,,,,,,,,,,,,,,,None,651.3538647700043,None,,,,,,,,,,,,,,,,,,,,,,,,,,,,,,,,650.139835066002,None,650.139835066002,None,right,0,1.212317430996336,650.139835066002,None,,,,,,,,,,,,,,,,,,4,30,M,2021_Apr_09_1755,ldt_en_hi,2021.1.3,1021.5750509267291,
,,,,,,,,,,,,साल,age,right,6,,,,,,,,,,,,,1,23,103,0,,,,,,,,,,,,,,,,,None,652.5757924409991,None,,,,,,,,,,,,,,,,,,,,,,,,,,,,,,,,651.8573309120111,None,651.8573309120111,None,right,1,0.716588416005834,651.8573309120111,None,,,,,,,,,,,,,,,,,,4,30,M,2021_Apr_09_1755,ldt_en_hi,2021.1.3,1021.5750509267291,
,,,,,,,,,,,,कंबल,poldcemps,left,10,,,,,,,,,,,,,1,24,104,46,,,,,,,,,,,,,,,,,None,654.1397809600021,None,,,,,,,,,,,,,,,,,,,,,,,,,,,,,,,,653.0795617080003,None,653.0795617080003,None,left,1,1.0583232369972393,653.0795617080003,None,,,,,,,,,,,,,,,,,,4,30,M,2021_Apr_09_1755,ldt_en_hi,2021.1.3,1021.5750509267291,
,,,,,,,,,,,,जोकर,eyes,right,7,,,,,,,,,,,,,1,25,105,38,,,,,,,,,,,,,,,,,None,655.3926509110024,None,,,,,,,,,,,,,,,,,,,,,,,,,,,,,,,,654.645213530006,None,654.645213530006,None,right,1,0.7458193200000096,654.645213530006,None,,,,,,,,,,,,,,,,,,4,30,M,2021_Apr_09_1755,ldt_en_hi,2021.1.3,1021.5750509267291,
,,,,,,,,,,,,परावान,valuable,left,9,,,,,,,,,,,,,1,26,106,79,,,,,,,,,,,,,,,,,None,656.5133454400057,None,,,,,,,,,,,,,,,,,,,,,,,,,,,,,,,,655.8984730890079,None,655.8984730890079,None,right,0,0.6130097889981698,655.8984730890079,None,,,,,,,,,,,,,,,,,,4,30,M,2021_Apr_09_1755,ldt_en_hi,2021.1.3,1021.5750509267291,
,,,,,,,,,,,,केला,diary,right,7,,,,,,,,,,,,,1,27,107,37,,,,,,,,,,,,,,,,,None,657.7318710880063,None,,,,,,,,,,,,,,,,,,,,,,,,,,,,,,,,657.0172042690101,None,657.0172042690101,None,right,1,0.713023581993184,657.0172042690101,None,,,,,,,,,,,,,,,,,,4,30,M,2021_Apr_09_1755,ldt_en_hi,2021.1.3,1021.5750509267291,
,,,,,,,,,,,,भगवान,temple,right,6,,,,,,,,,,,,,1,28,108,15,,,,,,,,,,,,,,,,,None,658.9301359180099,None,,,,,,,,,,,,,,,,,,,,,,,,,,,,,,,,658.2358198290021,None,658.2358198290021,None,right,1,0.6927462489984464,658.2358198290021,None,,,,,,,,,,,,,,,,,,4,30,M,2021_Apr_09_1755,ldt_en_hi,2021.1.3,1021.5750509267291,
,,,,,,,,,,,,तीर,bow,right,6,,,,,,,,,,,,,1,29,109,8,,,,,,,,,,,,,,,,,None,660.0703498160001,None,,,,,,,,,,,,,,,,,,,,,,,,,,,,,,,,659.434243871001,None,659.434243871001,None,right,1,0.6345190510037355,659.434243871001,None,,,,,,,,,,,,,,,,,,4,30,M,2021_Apr_09_1755,ldt_en_hi,2021.1.3,1021.5750509267291,
,,,,,,,,,,,,अजमदा,uttac,left,8,,,,,,,,,,,,,1,30,110,62,,,,,,,,,,,,,,,,,None,661.0927656300046,None,,,,,,,,,,,,,,,,,,,,,,,,,,,,,,,,660.5739478100004,None,660.5739478100004,None,right,0,0.5172460510075325,660.5739478100004,None,,,,,,,,,,,,,,,,,,4,30,M,2021_Apr_09_1755,ldt_en_hi,2021.1.3,1021.5750509267291,
,,,,,,,,,,,,शहनाई,decay,right,7,,,,,,,,,,,,,1,31,111,30,,,,,,,,,,,,,,,,,None,662.2773055410071,None,,,,,,,,,,,,,,,,,,,,,,,,,,,,,,,,661.5967878450028,None,661.5967878450028,None,right,1,0.6789064570039045,661.5967878450028,None,,,,,,,,,,,,,,,,,,4,30,M,2021_Apr_09_1755,ldt_en_hi,2021.1.3,1021.5750509267291,
,,,,,,,,,,,,जापान,cheat,right,7,,,,,,,,,,,,,1,32,112,22,,,,,,,,,,,,,,,,,None,663.3914176740072,None,,,,,,,,,,,,,,,,,,,,,,,,,,,,,,,,662.7814309450041,None,662.7814309450041,None,right,1,0.6083715749991825,662.7814309450041,None,,,,,,,,,,,,,,,,,,4,30,M,2021_Apr_09_1755,ldt_en_hi,2021.1.3,1021.5750509267291,
,,,,,,,,,,,,विमान,decision,right,7,,,,,,,,,,,,,1,33,113,31,,,,,,,,,,,,,,,,,None,665.7955642080051,None,,,,,,,,,,,,,,,,,,,,,,,,,,,,,,,,663.8952770440083,None,663.8952770440083,None,right,1,1.8986544069921365,663.8952770440083,None,,,,,,,,,,,,,,,,,,4,30,M,2021_Apr_09_1755,ldt_en_hi,2021.1.3,1021.5750509267291,
,,,,,,,,,,,,संट,subtraction,left,9,,,,,,,,,,,,,1,34,114,67,,,,,,,,,,,,,,,,,None,668.2858686330001,None,,,,,,,,,,,,,,,,,,,,,,,,,,,,,,,,666.2998182390002,None,666.2998182390002,None,right,0,1.9844488319940865,666.2998182390002,None,,,,,,,,,,,,,,,,,,4,30,M,2021_Apr_09_1755,ldt_en_hi,2021.1.3,1021.5750509267291,
,,,,,,,,,,,,गाड़ी,auto,right,6,,,,,,,,,,,,,1,35,115,2,,,,,,,,,,,,,,,,,None,669.4981909230119,None,,,,,,,,,,,,,,,,,,,,,,,,,,,,,,,,668.7899861480109,None,668.7899861480109,None,right,1,0.7065974139986793,668.7899861480109,None,,,,,,,,,,,,,,,,,,4,30,M,2021_Apr_09_1755,ldt_en_hi,2021.1.3,1021.5750509267291,
,,,,,,,,,,,,खोज,expensive,right,7,,,,,,,,,,,,,1,36,116,29,,,,,,,,,,,,,,,,,None,670.5201447260042,None,,,,,,,,,,,,,,,,,,,,,,,,,,,,,,,,670.0019618090009,None,670.0019618090009,None,right,1,0.5165903509914642,670.0019618090009,None,,,,,,,,,,,,,,,,,,4,30,M,2021_Apr_09_1755,ldt_en_hi,2021.1.3,1021.5750509267291,
,,,,,,,,,,,,टराव,tumor,left,9,,,,,,,,,,,,,1,37,117,68,,,,,,,,,,,,,,,,,None,672.0135758490069,None,,,,,,,,,,,,,,,,,,,,,,,,,,,,,,,,671.0238644830097,None,671.0238644830097,None,right,0,0.9881299410044448,671.0238644830097,None,,,,,,,,,,,,,,,,,,4,30,M,2021_Apr_09_1755,ldt_en_hi,2021.1.3,1021.5750509267291,
,,,,,,,,,,,,काम,imhge,left,10,,,,,,,,,,,,,1,38,118,40,,,,,,,,,,,,,,,,,right,673.9103846689977,None,,,,,,,,,,,,,,,,,,,,,,,,,,,,,,,,672.5173687300121,None,672.5173687300121,None,left,1,1.3913593519973801,672.5173687300121,None,0.24930147800478153,,,,,,,,,,,,,,,,,4,30,M,2021_Apr_09_1755,ldt_en_hi,2021.1.3,1021.5750509267291,
,,,,,,,,,,,,अभिनय,disbhvmeve,left,10,,,,,,,,,,,,,1,39,119,41,,,,,,,,,,,,,,,,,None,675.1399047830055,None,,,,,,,,,,,,,,,,,,,,,,,,,,,,,,,,674.1653823270026,None,674.1653823270026,None,left,1,0.9728855789871886,674.1653823270026,None,,,,,,,,,,,,,,,,,,4,30,M,2021_Apr_09_1755,ldt_en_hi,2021.1.3,1021.5750509267291,
,,,,,,,,,,,,फूल,suggeyf,left,10,,,,,,,,,,,,,1,40,120,53,,,,,,,,,,,,,,,,,None,679.150953400007,None,,,,,,,,,,,,,,,,,,,,,,,,,,,,,,,,675.643325322002,None,675.643325322002,None,left,1,3.5060304400103632,675.643325322002,None,,,,,,,,,,,,,,,,,,4,30,M,2021_Apr_09_1755,ldt_en_hi,2021.1.3,1021.5750509267291,
,,,,,,,,,,,,असमल,beaufifsl,left,8,,,,,,,,,,,,,1,41,121,66,,,,,,,,,,,,,,,,,None,681.5002266660013,None,,,,,,,,,,,,,,,,,,,,,,,,,,,,,,,,679.6549167839985,None,679.6549167839985,None,left,1,1.8436955770011991,679.6549167839985,None,,,,,,,,,,,,,,,,,,4,30,M,2021_Apr_09_1755,ldt_en_hi,2021.1.3,1021.5750509267291,
,,,,,,,,,,,,भावना,employer,right,7,,,,,,,,,,,,,1,42,122,24,,,,,,,,,,,,,,,,,None,682.938725029002,None,,,,,,,,,,,,,,,,,,,,,,,,,,,,,,,,682.0037577220064,None,682.0037577220064,None,right,1,0.9333863920037402,682.0037577220064,None,,,,,,,,,,,,,,,,,,4,30,M,2021_Apr_09_1755,ldt_en_hi,2021.1.3,1021.5750509267291,
,,,,,,,,,,,,यूोप,mustache,left,9,,,,,,,,,,,,,1,43,123,71,,,,,,,,,,,,,,,,,None,684.2802684080089,None,,,,,,,,,,,,,,,,,,,,,,,,,,,,,,,,683.4427097840089,None,683.4427097840089,None,left,1,0.835918238008162,683.4427097840089,None,,,,,,,,,,,,,,,,,,4,30,M,2021_Apr_09_1755,ldt_en_hi,2021.1.3,1021.5750509267291,
,,,,,,,,,,,,मगरम,bow,left,9,,,,,,,,,,,,,1,44,124,70,,,,,,,,,,,,,,,,,None,686.0149369249993,None,,,,,,,,,,,,,,,,,,,,,,,,,,,,,,,,684.7843070350063,None,684.7843070350063,None,left,1,1.2290095439966535,684.7843070350063,None,,,,,,,,,,,,,,,,,,4,30,M,2021_Apr_09_1755,ldt_en_hi,2021.1.3,1021.5750509267291,
,,,,,,,,,,,,अपरा,blackboard,left,9,,,,,,,,,,,,,1,45,125,75,,,,,,,,,,,,,,,,,None,687.593445860999,None,,,,,,,,,,,,,,,,,,,,,,,,,,,,,,,,686.5188666070026,None,686.5188666070026,None,right,0,1.0729420279967599,686.5188666070026,None,,,,,,,,,,,,,,,,,,4,30,M,2021_Apr_09_1755,ldt_en_hi,2021.1.3,1021.5750509267291,
,,,,,,,,,,,,गहना,diamond,right,6,,,,,,,,,,,,,1,46,126,20,,,,,,,,,,,,,,,,,None,688.6638376970077,None,,,,,,,,,,,,,,,,,,,,,,,,,,,,,,,,688.0970242960029,None,688.0970242960029,None,right,1,0.5652055629907409,688.0970242960029,None,,,,,,,,,,,,,,,,,,4,30,M,2021_Apr_09_1755,ldt_en_hi,2021.1.3,1021.5750509267291,
,,,,,,,,,,,,गुफा,perigrm,left,10,,,,,,,,,,,,,1,47,127,51,,,,,,,,,,,,,,,,,None,689.8265740479983,None,,,,,,,,,,,,,,,,,,,,,,,,,,,,,,,,689.1678058170073,None,689.1678058170073,None,right,0,0.6571321880037431,689.1678058170073,None,,,,,,,,,,,,,,,,,,4,30,M,2021_Apr_09_1755,ldt_en_hi,2021.1.3,1021.5750509267291,
,,,,,,,,,,,,अनाज,breakfast,right,6,,,,,,,,,,,,,1,48,128,11,,,,,,,,,,,,,,,,,None,692.0616422550083,None,,,,,,,,,,,,,,,,,,,,,,,,,,,,,,,,690.3306228900037,None,690.3306228900037,None,right,1,1.7293958320078673,690.3306228900037,None,,,,,,,,,,,,,,,,,,4,30,M,2021_Apr_09_1755,ldt_en_hi,2021.1.3,1021.5750509267291,
,,,,,,,,,,,,बातचीत,busg,left,10,,,,,,,,,,,,,1,49,129,43,,,,,,,,,,,,,,,,,None,693.4928562970017,None,,,,,,,,,,,,,,,,,,,,,,,,,,,,,,,,692.5656208450091,None,692.5656208450091,None,left,1,0.925617164990399,692.5656208450091,None,,,,,,,,,,,,,,,,,,4,30,M,2021_Apr_09_1755,ldt_en_hi,2021.1.3,1021.5750509267291,
,,,,,,,,,,,,जापान,china,right,6,,,,,,,,,,,,,1,50,130,14,,,,,,,,,,,,,,,,,None,694.7415035430022,None,,,,,,,,,,,,,,,,,,,,,,,,,,,,,,,,693.9979162210075,None,693.9979162210075,None,right,1,0.7421623519912828,693.9979162210075,None,,,,,,,,,,,,,,,,,,4,30,M,2021_Apr_09_1755,ldt_en_hi,2021.1.3,1021.5750509267291,
,,,,,,,,,,,,लड़ाकू,boxer,right,6,,,,,,,,,,,,,1,51,131,9,,,,,,,,,,,,,,,,,None,696.4337664320046,None,,,,,,,,,,,,,,,,,,,,,,,,,,,,,,,,695.2456308690016,None,695.2456308690016,None,right,1,1.1860783510055626,695.2456308690016,None,,,,,,,,,,,,,,,,,,4,30,M,2021_Apr_09_1755,ldt_en_hi,2021.1.3,1021.5750509267291,
,,,,,,,,,,,,संट,kitchen,left,9,,,,,,,,,,,,,1,52,132,76,,,,,,,,,,,,,,,,,None,698.0223406360019,None,,,,,,,,,,,,,,,,,,,,,,,,,,,,,,,,696.9380778160121,None,696.9380778160121,None,right,0,1.0826730590051739,696.9380778160121,None,,,,,,,,,,,,,,,,,,4,30,M,2021_Apr_09_1755,ldt_en_hi,2021.1.3,1021.5750509267291,
,,,,,,,,,,,,सावधान,caklqblower,left,10,,,,,,,,,,,,,1,53,133,44,,,,,,,,,,,,,,,,,None,699.1529502230114,None,,,,,,,,,,,,,,,,,,,,,,,,,,,,,,,,698.5264192400064,None,698.5264192400064,None,right,0,0.6249145369947655,698.5264192400064,None,,,,,,,,,,,,,,,,,,4,30,M,2021_Apr_09_1755,ldt_en_hi,2021.1.3,1021.5750509267291,
,,,,,,,,,,,,महंगा,cheap,right,6,,,,,,,,,,,,,1,54,134,13,,,,,,,,,,,,,,,,,None,700.2617553029995,None,,,,,,,,,,,,,,,,,,,,,,,,,,,,,,,,699.6573629510094,None,699.6573629510094,None,right,1,0.6025254669948481,699.6573629510094,None,,,,,,,,,,,,,,,,,,4,30,M,2021_Apr_09_1755,ldt_en_hi,2021.1.3,1021.5750509267291,
,,,,,,,,,,,,असमल,rug,left,9,,,,,,,,,,,,,1,55,135,74,,,,,,,,,,,,,,,,,None,701.7524822830019,None,,,,,,,,,,,,,,,,,,,,,,,,,,,,,,,,700.7654589810118,None,700.7654589810118,None,right,0,0.9853890580125153,700.7654589810118,None,,,,,,,,,,,,,,,,,,4,30,M,2021_Apr_09_1755,ldt_en_hi,2021.1.3,1021.5750509267291,
,,,,,,,,,,,,परावान,octopus,left,9,,,,,,,,,,,,,1,56,136,69,,,,,,,,,,,,,,,,,None,702.7591128950007,None,,,,,,,,,,,,,,,,,,,,,,,,,,,,,,,,702.2561509310035,None,702.2561509310035,None,right,0,0.5013204240094637,702.2561509310035,None,,,,,,,,,,,,,,,,,,4,30,M,2021_Apr_09_1755,ldt_en_hi,2021.1.3,1021.5750509267291,
,,,,,,,,,,,,वकी,averake,left,8,,,,,,,,,,,,,1,57,137,63,,,,,,,,,,,,,,,,,None,705.1203453290073,None,,,,,,,,,,,,,,,,,,,,,,,,,,,,,,,,703.2629894440033,None,703.2629894440033,None,left,1,1.8557245029951446,703.2629894440033,None,,,,,,,,,,,,,,,,,,4,30,M,2021_Apr_09_1755,ldt_en_hi,2021.1.3,1021.5750509267291,
,,,,,,,,,,,,मगरम,hodker,left,8,,,,,,,,,,,,,1,58,138,54,,,,,,,,,,,,,,,,,None,707.6806353370048,None,,,,,,,,,,,,,,,,,,,,,,,,,,,,,,,,705.6240952240041,None,705.6240952240041,None,left,1,2.0548919749999186,705.6240952240041,None,,,,,,,,,,,,,,,,,,4,30,M,2021_Apr_09_1755,ldt_en_hi,2021.1.3,1021.5750509267291,
,,,,,,,,,,,,सच,copy,right,7,,,,,,,,,,,,,1,59,139,25,,,,,,,,,,,,,,,,,None,708.9838624650001,None,,,,,,,,,,,,,,,,,,,,,,,,,,,,,,,,708.1845757830015,None,708.1845757830015,None,right,1,0.7976585879951017,708.1845757830015,None,,,,,,,,,,,,,,,,,,4,30,M,2021_Apr_09_1755,ldt_en_hi,2021.1.3,1021.5750509267291,
,,,,,,,,,,,,भीड़,crowd,right,6,,,,,,,,,,,,,1,60,140,17,,,,,,,,,,,,,,,,,None,710.6610250090016,None,,,,,,,,,,,,,,,,,,,,,,,,,,,,,,,,709.4878004900092,None,709.4878004900092,None,right,1,1.1715922550065443,709.4878004900092,None,,,,,,,,,,,,,,,,,,4,30,M,2021_Apr_09_1755,ldt_en_hi,2021.1.3,1021.5750509267291,
,,,,,,,,,,,,नक,bnat,left,8,,,,,,,,,,,,,1,61,141,65,,,,,,,,,,,,,,,,,None,711.9003930670006,None,,,,,,,,,,,,,,,,,,,,,,,,,,,,,,,,711.1649768380012,None,711.1649768380012,None,right,0,0.7337884209991898,711.1649768380012,None,,,,,,,,,,,,,,,,,,4,30,M,2021_Apr_09_1755,ldt_en_hi,2021.1.3,1021.5750509267291,
,,,,,,,,,,,,सलाह,mabapine,left,10,,,,,,,,,,,,,1,62,142,42,,,,,,,,,,,,,,,,,None,714.5853553620109,None,,,,,,,,,,,,,,,,,,,,,,,,,,,,,,,,712.4044680189982,None,712.4044680189982,None,left,1,2.1792640130006475,712.4044680189982,None,,,,,,,,,,,,,,,,,,4,30,M,2021_Apr_09_1755,ldt_en_hi,2021.1.3,1021.5750509267291,
,,,,,,,,,,,,सिपाही,empty,right,7,,,,,,,,,,,,,1,63,143,27,,,,,,,,,,,,,,,,,None,717.0135135809978,None,,,,,,,,,,,,,,,,,,,,,,,,,,,,,,,,715.0890436330083,None,715.0890436330083,None,left,0,1.9226874680025503,715.0890436330083,None,,,,,,,,,,,,,,,,,,4,30,M,2021_Apr_09_1755,ldt_en_hi,2021.1.3,1021.5750509267291,
,,,,,,,,,,,,शेर,lion,right,6,,,,,,,,,,,,,1,64,144,1,,,,,,,,,,,,,,,,,None,718.2822659340018,None,,,,,,,,,,,,,,,,,,,,,,,,,,,,,,,,717.5171351140016,None,717.5171351140016,None,right,1,0.7635048009979073,717.5171351140016,None,,,,,,,,,,,,,,,,,,4,30,M,2021_Apr_09_1755,ldt_en_hi,2021.1.3,1021.5750509267291,
