w_word1,w_word2,w_corrAns,w_category,word1,word2,corrAns,category,w_hword1,w_hword2,w_hcorrAns,w_hcategory,hword1,hword2,hcorrAns,hcategory,enwarmuptrials.thisRepN,enwarmuptrials.thisTrialN,enwarmuptrials.thisN,enwarmuptrials.thisIndex,en_trials.thisRepN,en_trials.thisTrialN,en_trials.thisN,en_trials.thisIndex,hiwarmuptrials.thisRepN,hiwarmuptrials.thisTrialN,hiwarmuptrials.thisN,hiwarmuptrials.thisIndex,hi_trials.thisRepN,hi_trials.thisTrialN,hi_trials.thisN,hi_trials.thisIndex,eninstrstim.started,eninstrstim.stopped,enkbinstr.keys,enkbinstr.corr,enkbinstr.rt,enkbinstr.started,enkbinstr.stopped,enwarmupw1.started,enwarmupw1.stopped,enwarmupw2.started,enwarmupw2.stopped,enwarmupkb.keys,enwarmupkb.corr,enwarmupkb.rt,enwarmupkb.started,enwarmupkb.stopped,restresp.keys,restresp.started,restresp.stopped,startexpprompt.started,startexpprompt.stopped,startexpkbresp.keys,startexpkbresp.rt,startexpkbresp.started,startexpkbresp.stopped,entrialw1.started,entrialw1.stopped,entrialw2.started,entrialw2.stopped,enkbresp.keys,enkbresp.corr,enkbresp.rt,enkbresp.started,enkbresp.stopped,hiinstrstim.started,hiinstrstim.stopped,hikbinstr.keys,hikbinstr.corr,hikbinstr.rt,hikbinstr.started,hikbinstr.stopped,hiwarmupw1.started,hiwarmupw1.stopped,hiwarmupw2.started,hiwarmupw2.stopped,hiwarmupkb.keys,hiwarmupkb.corr,hiwarmupkb.rt,hiwarmupkb.started,hiwarmupkb.stopped,hitrialw1.started,hitrialw1.stopped,hitrialw2.started,hitrialw2.stopped,hikbresp.keys,hikbresp.corr,hikbresp.rt,hikbresp.started,hikbresp.stopped,hiskill.text,hiskill.started,hiskill.stopped,hirespskill.keys,hirespskill.rt,hirespskill.started,hirespskill.stopped,enskill_2.text,enskill_2.started,enskill_2.stopped,enrespskill_2.keys,enrespskill_2.rt,enrespskill_2.started,enrespskill_2.stopped,participant,age,gender,date,expName,psychopyVersion,frameRate,
,,,,,,,,,,,,,,,,,,,,,,,,,,,,,,,,9.133092212010524,None,right,0,7.063867279008264,9.133092212010524,None,,,,,,,,,,,,,,,,,,,,,,,,,,,,,,,,,,,,,,,,,,,,,,,,,,,,,,,,,,,,,,,,,,,5,26,f,2021_Apr_09_2041,ldt_en_hi,2021.1.3,1420.7181065252626,
ash,ashtray,right,1,,,,,,,,,,,,,0,0,0,1,,,,,,,,,,,,,,,,,,,,16.20790271300939,None,16.20790271300939,None,right,1,1.2929629900027066,16.20790271300939,None,None,17.502426544000627,None,,,,,,,,,,,,,,,,,,,,,,,,,,,,,,,,,,,,,,,,,,,,,,,,,,,,,,,5,26,f,2021_Apr_09_2041,ldt_en_hi,2021.1.3,1420.7181065252626,
mick,lofy,left,3,,,,,,,,,,,,,0,1,1,4,,,,,,,,,,,,,,,,,,,,18.012614883002243,None,18.012614883002243,None,left,1,1.0447229989949847,18.012614883002243,None,None,19.058623371005524,None,,,,,,,,,,,,,,,,,,,,,,,,,,,,,,,,,,,,,,,,,,,,,,,,,,,,,,,5,26,f,2021_Apr_09_2041,ldt_en_hi,2021.1.3,1420.7181065252626,
fite,crack,left,4,,,,,,,,,,,,,0,2,2,2,,,,,,,,,,,,,,,,,,,,19.561205710007926,None,19.561205710007926,None,left,1,1.7607409310003277,19.561205710007926,None,None,21.32320562400855,None,,,,,,,,,,,,,,,,,,,,,,,,,,,,,,,,,,,,,,,,,,,,,,,,,,,,,,,5,26,f,2021_Apr_09_2041,ldt_en_hi,2021.1.3,1420.7181065252626,
sun,cepy,left,5,,,,,,,,,,,,,0,3,3,3,,,,,,,,,,,,,,,,,,,,21.826153185000294,None,21.826153185000294,None,left,1,1.3069960349967005,21.826153185000294,None,None,23.13439511001343,None,,,,,,,,,,,,,,,,,,,,,,,,,,,,,,,,,,,,,,,,,,,,,,,,,,,,,,,5,26,f,2021_Apr_09_2041,ldt_en_hi,2021.1.3,1420.7181065252626,
whistle,england,right,2,,,,,,,,,,,,,0,4,4,0,,,,,,,,,,,,,,,,,,,,23.63747475700802,None,23.63747475700802,None,right,1,1.2641224369872361,23.63747475700802,None,None,24.902889534001588,None,,,,,,,,,,,,,,,,,,,,,,,,,,,,,,,,,,,,,,,,,,,,,,,,,,,,,,,5,26,f,2021_Apr_09_2041,ldt_en_hi,2021.1.3,1420.7181065252626,
,,,,,,,,,,,,,,,,,,,,,,,,,,,,,,,,,,,,,,,,,,,,,,,,,,,25.40364693700394,None,right,1.2409146660065744,25.40364693700394,None,,,,,,,,,,,,,,,,,,,,,,,,,,,,,,,,,,,,,,,,,,,,,,,,,5,26,f,2021_Apr_09_2041,ldt_en_hi,2021.1.3,1420.7181065252626,
,,,,,,,,,,,,,,,,,,,,,,,,,,,,,,,,,,,,,,,,,,,,,,,,None,26.64535365300253,None,,,,,,,,,,,,,,,,,,,,,,,,,,,,,,,,,,,,,,,,,,,,,,,,,,,,,,,5,26,f,2021_Apr_09_2041,ldt_en_hi,2021.1.3,1420.7181065252626,
,,,,imhge,eyes,left,4,,,,,,,,,,,,,0,0,0,75,,,,,,,,,,,,,,,,,,,,,,,,,None,28.026970610007993,None,,,,,,,27.163511262013344,None,27.163511262013344,None,left,1,0.861772882999503,27.163511262013344,None,,,,,,,,,,,,,,,,,,,,,,,,,,,,,,,,,,,,,,,,5,26,f,2021_Apr_09_2041,ldt_en_hi,2021.1.3,1420.7181065252626,
,,,,invent,ceok,left,5,,,,,,,,,,,,,0,1,1,53,,,,,,,,,,,,,,,,,,,,,,,,,None,30.058241995007847,None,,,,,,,28.536732710999786,None,28.536732710999786,None,left,1,1.520241675010766,28.536732710999786,None,,,,,,,,,,,,,,,,,,,,,,,,,,,,,,,,,,,,,,,,5,26,f,2021_Apr_09_2041,ldt_en_hi,2021.1.3,1420.7181065252626,
,,,,lobster,crab,right,1,,,,,,,,,,,,,0,2,2,19,,,,,,,,,,,,,,,,,,,,,,,,,None,31.593631680007093,None,,,,,,,30.56876704801107,None,30.56876704801107,None,right,1,1.023595299993758,30.56876704801107,None,,,,,,,,,,,,,,,,,,,,,,,,,,,,,,,,,,,,,,,,5,26,f,2021_Apr_09_2041,ldt_en_hi,2021.1.3,1420.7181065252626,
,,,,exdlavstion,cloth,left,4,,,,,,,,,,,,,0,3,3,71,,,,,,,,,,,,,,,,,,,,,,,,,None,32.939486514005694,None,,,,,,,32.09623681200901,None,32.09623681200901,None,left,1,0.8419805079902289,32.09623681200901,None,,,,,,,,,,,,,,,,,,,,,,,,,,,,,,,,,,,,,,,,5,26,f,2021_Apr_09_2041,ldt_en_hi,2021.1.3,1420.7181065252626,
,,,,mug,beer,right,1,,,,,,,,,,,,,0,4,4,7,,,,,,,,,,,,,,,,,,,,,,,,,None,34.294128152003395,None,,,,,,,33.44177782800398,None,33.44177782800398,None,right,1,0.8510759029886685,33.44177782800398,None,,,,,,,,,,,,,,,,,,,,,,,,,,,,,,,,,,,,,,,,5,26,f,2021_Apr_09_2041,ldt_en_hi,2021.1.3,1420.7181065252626,
,,,,capmpiwity,nney,left,3,,,,,,,,,,,,,0,5,5,44,,,,,,,,,,,,,,,,,,,,,,,,,None,35.57197546301177,None,,,,,,,34.79713206800807,None,34.79713206800807,None,left,1,0.7735789240105078,34.79713206800807,None,,,,,,,,,,,,,,,,,,,,,,,,,,,,,,,,,,,,,,,,5,26,f,2021_Apr_09_2041,ldt_en_hi,2021.1.3,1420.7181065252626,
,,,,inquire,blush,right,2,,,,,,,,,,,,,0,6,6,39,,,,,,,,,,,,,,,,,,,,,,,,,None,37.8965305800084,None,,,,,,,36.082712354007526,None,36.082712354007526,None,right,1,1.8125290700118057,36.082712354007526,None,,,,,,,,,,,,,,,,,,,,,,,,,,,,,,,,,,,,,,,,5,26,f,2021_Apr_09_2041,ldt_en_hi,2021.1.3,1420.7181065252626,
,,,,snuggle,atnton,left,5,,,,,,,,,,,,,0,7,7,56,,,,,,,,,,,,,,,,,,,,,,,,,None,39.825214617012534,None,,,,,,,38.39954777000821,None,38.39954777000821,None,left,1,1.4241561719973106,38.39954777000821,None,,,,,,,,,,,,,,,,,,,,,,,,,,,,,,,,,,,,,,,,5,26,f,2021_Apr_09_2041,ldt_en_hi,2021.1.3,1420.7181065252626,
,,,,fury,beginner,right,2,,,,,,,,,,,,,0,8,8,32,,,,,,,,,,,,,,,,,,,,,,,,,None,42.045408637000946,None,,,,,,,40.3279398070008,None,40.3279398070008,None,right,1,1.715937222004868,40.3279398070008,None,,,,,,,,,,,,,,,,,,,,,,,,,,,,,,,,,,,,,,,,5,26,f,2021_Apr_09_2041,ldt_en_hi,2021.1.3,1420.7181065252626,
,,,,mute,bygknner,left,5,,,,,,,,,,,,,0,9,9,65,,,,,,,,,,,,,,,,,,,,,,,,,None,43.604977682000026,None,,,,,,,42.54830374500307,None,42.54830374500307,None,left,1,1.0553951019974193,42.54830374500307,None,,,,,,,,,,,,,,,,,,,,,,,,,,,,,,,,,,,,,,,,5,26,f,2021_Apr_09_2041,ldt_en_hi,2021.1.3,1420.7181065252626,
,,,,caklqblower,fashion,left,4,,,,,,,,,,,,,0,10,10,79,,,,,,,,,,,,,,,,,,,,,,,,,None,45.08754458501062,None,,,,,,,44.107732717006,None,44.107732717006,None,left,1,0.9785433680081042,44.107732717006,None,,,,,,,,,,,,,,,,,,,,,,,,,,,,,,,,,,,,,,,,5,26,f,2021_Apr_09_2041,ldt_en_hi,2021.1.3,1420.7181065252626,
,,,,ballet,fgor,left,5,,,,,,,,,,,,,0,11,11,60,,,,,,,,,,,,,,,,,,,,,,,,,None,46.728621677000774,None,,,,,,,45.591450907013495,None,45.591450907013495,None,left,1,1.1359026879945304,45.591450907013495,None,,,,,,,,,,,,,,,,,,,,,,,,,,,,,,,,,,,,,,,,5,26,f,2021_Apr_09_2041,ldt_en_hi,2021.1.3,1420.7181065252626,
,,,,udvirb,prew,left,3,,,,,,,,,,,,,0,12,12,47,,,,,,,,,,,,,,,,,,,,,,,,,None,48.47558873500384,None,,,,,,,47.23131499400188,None,47.23131499400188,None,left,1,1.2430015610007104,47.23131499400188,None,,,,,,,,,,,,,,,,,,,,,,,,,,,,,,,,,,,,,,,,5,26,f,2021_Apr_09_2041,ldt_en_hi,2021.1.3,1420.7181065252626,
,,,,adventure,bnat,left,5,,,,,,,,,,,,,0,13,13,62,,,,,,,,,,,,,,,,,,,,,,,,,None,49.78179868700681,None,,,,,,,48.97811821301002,None,48.97811821301002,None,left,1,0.8023979340068763,48.97811821301002,None,,,,,,,,,,,,,,,,,,,,,,,,,,,,,,,,,,,,,,,,5,26,f,2021_Apr_09_2041,ldt_en_hi,2021.1.3,1420.7181065252626,
,,,,octopus,arms,right,1,,,,,,,,,,,,,0,14,14,4,,,,,,,,,,,,,,,,,,,,,,,,,None,51.355963685011375,None,,,,,,,50.28478073001315,None,50.28478073001315,None,right,1,1.0698955950065283,50.28478073001315,None,,,,,,,,,,,,,,,,,,,,,,,,,,,,,,,,,,,,,,,,5,26,f,2021_Apr_09_2041,ldt_en_hi,2021.1.3,1420.7181065252626,
,,,,corpse,bigan,left,5,,,,,,,,,,,,,0,15,15,64,,,,,,,,,,,,,,,,,,,,,,,,,None,53.06530468900746,None,,,,,,,51.85859194600198,None,51.85859194600198,None,left,1,1.205428176006535,51.85859194600198,None,,,,,,,,,,,,,,,,,,,,,,,,,,,,,,,,,,,,,,,,5,26,f,2021_Apr_09_2041,ldt_en_hi,2021.1.3,1420.7181065252626,
,,,,tumor,cancer,right,1,,,,,,,,,,,,,0,16,16,14,,,,,,,,,,,,,,,,,,,,,,,,,None,54.3383251530031,None,,,,,,,53.56837271001132,None,53.56837271001132,None,right,1,0.7686476540111471,53.56837271001132,None,,,,,,,,,,,,,,,,,,,,,,,,,,,,,,,,,,,,,,,,5,26,f,2021_Apr_09_2041,ldt_en_hi,2021.1.3,1420.7181065252626,
,,,,stpactin,fear,left,4,,,,,,,,,,,,,0,17,17,68,,,,,,,,,,,,,,,,,,,,,,,,,None,55.85966141700919,None,,,,,,,54.84132282200153,None,54.84132282200153,None,left,1,1.0170677740097744,54.84132282200153,None,,,,,,,,,,,,,,,,,,,,,,,,,,,,,,,,,,,,,,,,5,26,f,2021_Apr_09_2041,ldt_en_hi,2021.1.3,1420.7181065252626,
,,,,mustache,beard,right,1,,,,,,,,,,,,,0,18,18,6,,,,,,,,,,,,,,,,,,,,,,,,,None,57.290428107007756,None,,,,,,,56.362407180000446,None,56.362407180000446,None,right,1,0.9266210770001635,56.362407180000446,None,,,,,,,,,,,,,,,,,,,,,,,,,,,,,,,,,,,,,,,,5,26,f,2021_Apr_09_2041,ldt_en_hi,2021.1.3,1420.7181065252626,
,,,,suggeyf,biurd,left,3,,,,,,,,,,,,,0,19,19,48,,,,,,,,,,,,,,,,,,,,,,,,,None,58.82945961500809,None,,,,,,,57.79297862500243,None,57.79297862500243,None,left,1,1.035191114002373,57.79297862500243,None,,,,,,,,,,,,,,,,,,,,,,,,,,,,,,,,,,,,,,,,5,26,f,2021_Apr_09_2041,ldt_en_hi,2021.1.3,1420.7181065252626,
,,,,quantity,beautiful,right,2,,,,,,,,,,,,,0,20,20,30,,,,,,,,,,,,,,,,,,,,,,,,,None,61.112788259008084,None,,,,,,,59.33242399500159,None,59.33242399500159,None,right,1,1.7790647749934578,59.33242399500159,None,,,,,,,,,,,,,,,,,,,,,,,,,,,,,,,,,,,,,,,,5,26,f,2021_Apr_09_2041,ldt_en_hi,2021.1.3,1420.7181065252626,
,,,,buws,decide,left,4,,,,,,,,,,,,,0,21,21,73,,,,,,,,,,,,,,,,,,,,,,,,,None,62.63278852200892,None,,,,,,,61.6157956970128,None,61.6157956970128,None,left,1,1.015474769010325,61.6157956970128,None,,,,,,,,,,,,,,,,,,,,,,,,,,,,,,,,,,,,,,,,5,26,f,2021_Apr_09_2041,ldt_en_hi,2021.1.3,1420.7181065252626,
,,,,riject,farm,left,4,,,,,,,,,,,,,0,22,22,66,,,,,,,,,,,,,,,,,,,,,,,,,None,64.28750164600206,None,,,,,,,63.14164286800951,None,63.14164286800951,None,left,1,1.1442905090079876,63.14164286800951,None,,,,,,,,,,,,,,,,,,,,,,,,,,,,,,,,,,,,,,,,5,26,f,2021_Apr_09_2041,ldt_en_hi,2021.1.3,1420.7181065252626,
,,,,tricycle,bicycle,right,1,,,,,,,,,,,,,0,23,23,9,,,,,,,,,,,,,,,,,,,,,,,,,None,65.82223915601207,None,,,,,,,64.79024210201169,None,64.79024210201169,None,right,1,1.0307105770043563,64.79024210201169,None,,,,,,,,,,,,,,,,,,,,,,,,,,,,,,,,,,,,,,,,5,26,f,2021_Apr_09_2041,ldt_en_hi,2021.1.3,1420.7181065252626,
,,,,ash,blue,right,2,,,,,,,,,,,,,0,24,24,38,,,,,,,,,,,,,,,,,,,,,,,,,None,67.43455930300115,None,,,,,,,66.32496067300963,None,66.32496067300963,None,right,1,1.1080436569900485,66.32496067300963,None,,,,,,,,,,,,,,,,,,,,,,,,,,,,,,,,,,,,,,,,5,26,f,2021_Apr_09_2041,ldt_en_hi,2021.1.3,1420.7181065252626,
,,,,disagreement,blanket,right,2,,,,,,,,,,,,,0,25,25,36,,,,,,,,,,,,,,,,,,,,,,,,,None,69.17248068400659,None,,,,,,,67.937470527002,None,67.937470527002,None,right,1,1.2337181249895366,67.937470527002,None,,,,,,,,,,,,,,,,,,,,,,,,,,,,,,,,,,,,,,,,5,26,f,2021_Apr_09_2041,ldt_en_hi,2021.1.3,1420.7181065252626,
,,,,actor,axe,right,2,,,,,,,,,,,,,0,26,26,24,,,,,,,,,,,,,,,,,,,,,,,,,None,70.85571384700597,None,,,,,,,69.67497712500335,None,69.67497712500335,None,right,1,1.179426014990895,69.67497712500335,None,,,,,,,,,,,,,,,,,,,,,,,,,,,,,,,,,,,,,,,,5,26,f,2021_Apr_09_2041,ldt_en_hi,2021.1.3,1420.7181065252626,
,,,,adverb,backpack,right,2,,,,,,,,,,,,,0,27,27,25,,,,,,,,,,,,,,,,,,,,,,,,,None,72.7701582640002,None,,,,,,,71.35856264000176,None,71.35856264000176,None,right,1,1.4102564319910016,71.35856264000176,None,,,,,,,,,,,,,,,,,,,,,,,,,,,,,,,,,,,,,,,,5,26,f,2021_Apr_09_2041,ldt_en_hi,2021.1.3,1420.7181065252626,
,,,,perigrm,unswir,left,3,,,,,,,,,,,,,0,28,28,45,,,,,,,,,,,,,,,,,,,,,,,,,None,74.25183767601266,None,,,,,,,73.27313774100912,None,73.27313774100912,None,left,1,0.9773852090002038,73.27313774100912,None,,,,,,,,,,,,,,,,,,,,,,,,,,,,,,,,,,,,,,,,5,26,f,2021_Apr_09_2041,ldt_en_hi,2021.1.3,1420.7181065252626,
,,,,cricket,blow,right,2,,,,,,,,,,,,,0,29,29,37,,,,,,,,,,,,,,,,,,,,,,,,,None,75.87929381900176,None,,,,,,,74.7545939420088,None,74.7545939420088,None,right,1,1.1233992100023897,74.7545939420088,None,,,,,,,,,,,,,,,,,,,,,,,,,,,,,,,,,,,,,,,,5,26,f,2021_Apr_09_2041,ldt_en_hi,2021.1.3,1420.7181065252626,
,,,,suggest,ballet,right,2,,,,,,,,,,,,,0,30,30,26,,,,,,,,,,,,,,,,,,,,,,,,,None,77.42670993501088,None,,,,,,,76.38234723701316,None,76.38234723701316,None,right,1,1.0430490660073701,76.38234723701316,None,,,,,,,,,,,,,,,,,,,,,,,,,,,,,,,,,,,,,,,,5,26,f,2021_Apr_09_2041,ldt_en_hi,2021.1.3,1420.7181065252626,
,,,,capability,attic,right,2,,,,,,,,,,,,,0,31,31,22,,,,,,,,,,,,,,,,,,,,,,,,,None,79.19272077000642,None,,,,,,,77.92983311200805,None,77.92983311200805,None,right,1,1.261582119986997,77.92983311200805,None,,,,,,,,,,,,,,,,,,,,,,,,,,,,,,,,,,,,,,,,5,26,f,2021_Apr_09_2041,ldt_en_hi,2021.1.3,1420.7181065252626,
,,,,region,blame,right,2,,,,,,,,,,,,,0,32,32,35,,,,,,,,,,,,,,,,,,,,,,,,,None,82.27724686100555,None,,,,,,,79.6959079560038,None,79.6959079560038,None,right,1,2.580029151009512,79.6959079560038,None,,,,,,,,,,,,,,,,,,,,,,,,,,,,,,,,,,,,,,,,5,26,f,2021_Apr_09_2041,ldt_en_hi,2021.1.3,1420.7181065252626,
,,,,busg,data,left,4,,,,,,,,,,,,,0,33,33,78,,,,,,,,,,,,,,,,,,,,,,,,,None,83.68754703500599,None,,,,,,,82.77971803100081,None,82.77971803100081,None,left,1,0.9062522070016712,82.77971803100081,None,,,,,,,,,,,,,,,,,,,,,,,,,,,,,,,,,,,,,,,,5,26,f,2021_Apr_09_2041,ldt_en_hi,2021.1.3,1420.7181065252626,
,,,,disbelieve,believe,right,1,,,,,,,,,,,,,0,34,34,8,,,,,,,,,,,,,,,,,,,,,,,,,None,85.31610996401287,None,,,,,,,84.19061402700027,None,84.19061402700027,None,right,1,1.1239135089999763,84.19061402700027,None,,,,,,,,,,,,,,,,,,,,,,,,,,,,,,,,,,,,,,,,5,26,f,2021_Apr_09_2041,ldt_en_hi,2021.1.3,1420.7181065252626,
,,,,ucter,arks,left,3,,,,,,,,,,,,,0,35,35,46,,,,,,,,,,,,,,,,,,,,,,,,,None,86.68652184501116,None,,,,,,,85.81901080701209,None,85.81901080701209,None,left,1,0.8661709269945277,85.81901080701209,None,,,,,,,,,,,,,,,,,,,,,,,,,,,,,,,,,,,,,,,,5,26,f,2021_Apr_09_2041,ldt_en_hi,2021.1.3,1420.7181065252626,
,,,,mgstachi,forest,left,4,,,,,,,,,,,,,0,36,36,74,,,,,,,,,,,,,,,,,,,,,,,,,None,88.03792111801158,None,,,,,,,87.18913105400861,None,87.18913105400861,None,left,1,0.8474623060028534,87.18913105400861,None,,,,,,,,,,,,,,,,,,,,,,,,,,,,,,,,,,,,,,,,5,26,f,2021_Apr_09_2041,ldt_en_hi,2021.1.3,1420.7181065252626,
,,,,aczreis,duty,left,4,,,,,,,,,,,,,0,37,37,67,,,,,,,,,,,,,,,,,,,,,,,,,None,89.2861593770067,None,,,,,,,88.54677737900056,None,88.54677737900056,None,left,1,0.7380616290029138,88.54677737900056,None,,,,,,,,,,,,,,,,,,,,,,,,,,,,,,,,,,,,,,,,5,26,f,2021_Apr_09_2041,ldt_en_hi,2021.1.3,1420.7181065252626,
,,,,busy,bored,right,1,,,,,,,,,,,,,0,38,38,11,,,,,,,,,,,,,,,,,,,,,,,,,None,90.63993996800855,None,,,,,,,89.78922595300537,None,89.78922595300537,None,right,1,0.8492889900080627,89.78922595300537,None,,,,,,,,,,,,,,,,,,,,,,,,,,,,,,,,,,,,,,,,5,26,f,2021_Apr_09_2041,ldt_en_hi,2021.1.3,1420.7181065252626,
,,,,quantyta,berid,left,3,,,,,,,,,,,,,0,39,39,52,,,,,,,,,,,,,,,,,,,,,,,,,None,91.88140892400406,None,,,,,,,91.14317292200576,None,91.14317292200576,None,left,1,0.7368809619947569,91.14317292200576,None,,,,,,,,,,,,,,,,,,,,,,,,,,,,,,,,,,,,,,,,5,26,f,2021_Apr_09_2041,ldt_en_hi,2021.1.3,1420.7181065252626,
,,,,blackboard,chalk,right,1,,,,,,,,,,,,,0,40,40,16,,,,,,,,,,,,,,,,,,,,,,,,,None,93.9788267420081,None,,,,,,,92.38426416000584,None,92.38426416000584,None,right,1,1.5932129380089464,92.38426416000584,None,,,,,,,,,,,,,,,,,,,,,,,,,,,,,,,,,,,,,,,,5,26,f,2021_Apr_09_2041,ldt_en_hi,2021.1.3,1420.7181065252626,
,,,,saucer,uttac,left,5,,,,,,,,,,,,,0,41,41,57,,,,,,,,,,,,,,,,,,,,,,,,,None,95.3586948000011,None,,,,,,,94.48163618800754,None,94.48163618800754,None,left,1,0.8757210179901449,94.48163618800754,None,,,,,,,,,,,,,,,,,,,,,,,,,,,,,,,,,,,,,,,,5,26,f,2021_Apr_09_2041,ldt_en_hi,2021.1.3,1420.7181065252626,
,,,,harmful,cownr,left,5,,,,,,,,,,,,,0,42,42,61,,,,,,,,,,,,,,,,,,,,,,,,,None,97.305791005012,None,,,,,,,95.8618520500022,None,95.8618520500022,None,left,1,1.4426074660004815,95.8618520500022,None,,,,,,,,,,,,,,,,,,,,,,,,,,,,,,,,,,,,,,,,5,26,f,2021_Apr_09_2041,ldt_en_hi,2021.1.3,1420.7181065252626,
,,,,disbhvmeve,destroy,left,4,,,,,,,,,,,,,0,43,43,76,,,,,,,,,,,,,,,,,,,,,,,,,None,102.82926304600551,None,,,,,,,97.80861809100315,None,97.80861809100315,None,left,1,5.019231735001085,97.80861809100315,None,,,,,,,,,,,,,,,,,,,,,,,,,,,,,,,,,,,,,,,,5,26,f,2021_Apr_09_2041,ldt_en_hi,2021.1.3,1420.7181065252626,
,,,,bow,arrow,right,1,,,,,,,,,,,,,0,44,44,5,,,,,,,,,,,,,,,,,,,,,,,,,None,104.41727729800914,None,,,,,,,103.33188902800612,None,103.33188902800612,None,right,1,1.0840656259970274,103.33188902800612,None,,,,,,,,,,,,,,,,,,,,,,,,,,,,,,,,,,,,,,,,5,26,f,2021_Apr_09_2041,ldt_en_hi,2021.1.3,1420.7181065252626,
,,,,rug,carpet,right,1,,,,,,,,,,,,,0,45,45,15,,,,,,,,,,,,,,,,,,,,,,,,,None,105.9146030270058,None,,,,,,,104.91993908700533,None,104.91993908700533,None,right,1,0.9933147480041953,104.91993908700533,None,,,,,,,,,,,,,,,,,,,,,,,,,,,,,,,,,,,,,,,,5,26,f,2021_Apr_09_2041,ldt_en_hi,2021.1.3,1420.7181065252626,
,,,,perform,average,right,2,,,,,,,,,,,,,0,46,46,23,,,,,,,,,,,,,,,,,,,,,,,,,None,107.44782127501094,None,,,,,,,106.41768236701319,None,106.41768236701319,None,right,1,1.0288066409993917,106.41768236701319,None,,,,,,,,,,,,,,,,,,,,,,,,,,,,,,,,,,,,,,,,5,26,f,2021_Apr_09_2041,ldt_en_hi,2021.1.3,1420.7181065252626,
,,,,valuable,devil,right,2,,,,,,,,,,,,,0,47,47,20,,,,,,,,,,,,,,,,,,,,,,,,,None,108.96494400300435,None,,,,,,,107.95095305501309,None,107.95095305501309,None,right,1,1.012622074005776,107.95095305501309,None,,,,,,,,,,,,,,,,,,,,,,,,,,,,,,,,,,,,,,,,5,26,f,2021_Apr_09_2041,ldt_en_hi,2021.1.3,1420.7181065252626,
,,,,awareness,base,right,2,,,,,,,,,,,,,0,48,48,28,,,,,,,,,,,,,,,,,,,,,,,,,None,110.35463617701316,None,,,,,,,109.46817727500456,None,109.46817727500456,None,right,1,0.8851123070053291,109.46817727500456,None,,,,,,,,,,,,,,,,,,,,,,,,,,,,,,,,,,,,,,,,5,26,f,2021_Apr_09_2041,ldt_en_hi,2021.1.3,1420.7181065252626,
,,,,magazine,book,right,1,,,,,,,,,,,,,0,49,49,10,,,,,,,,,,,,,,,,,,,,,,,,,None,111.81528980701114,None,,,,,,,110.8578361220134,None,110.8578361220134,None,right,1,0.95611120799731,110.8578361220134,None,,,,,,,,,,,,,,,,,,,,,,,,,,,,,,,,,,,,,,,,5,26,f,2021_Apr_09_2041,ldt_en_hi,2021.1.3,1420.7181065252626,
,,,,anteater,belt,right,2,,,,,,,,,,,,,0,50,50,33,,,,,,,,,,,,,,,,,,,,,,,,,None,113.22431812400464,None,,,,,,,112.31845504400553,None,112.31845504400553,None,left,0,0.9042869330005487,112.31845504400553,None,,,,,,,,,,,,,,,,,,,,,,,,,,,,,,,,,,,,,,,,5,26,f,2021_Apr_09_2041,ldt_en_hi,2021.1.3,1420.7181065252626,
,,,,policeman,cop,right,1,,,,,,,,,,,,,0,51,51,18,,,,,,,,,,,,,,,,,,,,,,,,,None,115.13830688501184,None,,,,,,,113.72720433700306,None,113.72720433700306,None,right,1,1.4097459589975188,113.72720433700306,None,,,,,,,,,,,,,,,,,,,,,,,,,,,,,,,,,,,,,,,,5,26,f,2021_Apr_09_2041,ldt_en_hi,2021.1.3,1420.7181065252626,
,,,,contreqt,bcer,left,3,,,,,,,,,,,,,0,52,52,49,,,,,,,,,,,,,,,,,,,,,,,,,None,116.5520258280012,None,,,,,,,115.64155700801348,None,115.64155700801348,None,left,1,0.9091034839948406,115.64155700801348,None,,,,,,,,,,,,,,,,,,,,,,,,,,,,,,,,,,,,,,,,5,26,f,2021_Apr_09_2041,ldt_en_hi,2021.1.3,1420.7181065252626,
,,,,adorable,bckpwck,left,5,,,,,,,,,,,,,0,53,53,59,,,,,,,,,,,,,,,,,,,,,,,,,None,117.96872412301309,None,,,,,,,117.05492130000493,None,117.05492130000493,None,left,1,0.9124521990015637,117.05492130000493,None,,,,,,,,,,,,,,,,,,,,,,,,,,,,,,,,,,,,,,,,5,26,f,2021_Apr_09_2041,ldt_en_hi,2021.1.3,1420.7181065252626,
,,,,ocbohus,bitch,left,4,,,,,,,,,,,,,0,54,54,72,,,,,,,,,,,,,,,,,,,,,,,,,None,119.76544609499979,None,,,,,,,118.47155404901423,None,118.47155404901423,None,left,1,1.292564465009491,118.47155404901423,None,,,,,,,,,,,,,,,,,,,,,,,,,,,,,,,,,,,,,,,,5,26,f,2021_Apr_09_2041,ldt_en_hi,2021.1.3,1420.7181065252626,
,,,,seem,bitch,right,2,,,,,,,,,,,,,0,55,55,34,,,,,,,,,,,,,,,,,,,,,,,,,None,121.3065660380089,None,,,,,,,120.26837095001247,None,120.26837095001247,None,right,1,1.036822032998316,120.26837095001247,None,,,,,,,,,,,,,,,,,,,,,,,,,,,,,,,,,,,,,,,,5,26,f,2021_Apr_09_2041,ldt_en_hi,2021.1.3,1420.7181065252626,
,,,,inventor,leab,left,5,,,,,,,,,,,,,0,56,56,54,,,,,,,,,,,,,,,,,,,,,,,,,None,122.61536221700953,None,,,,,,,121.80969014400034,None,121.80969014400034,None,left,1,0.8040372160030529,121.80969014400034,None,,,,,,,,,,,,,,,,,,,,,,,,,,,,,,,,,,,,,,,,5,26,f,2021_Apr_09_2041,ldt_en_hi,2021.1.3,1420.7181065252626,
,,,,frugtry,cheat,left,4,,,,,,,,,,,,,0,57,57,70,,,,,,,,,,,,,,,,,,,,,,,,,None,124.44487192601082,None,,,,,,,123.11859730700962,None,123.11859730700962,None,left,1,1.3249242849997245,123.11859730700962,None,,,,,,,,,,,,,,,,,,,,,,,,,,,,,,,,,,,,,,,,5,26,f,2021_Apr_09_2041,ldt_en_hi,2021.1.3,1420.7181065252626,
,,,,subtraction,addition,right,1,,,,,,,,,,,,,0,58,58,1,,,,,,,,,,,,,,,,,,,,,,,,,None,125.92309732901049,None,,,,,,,124.94778008801222,None,124.94778008801222,None,right,1,0.9739273589948425,124.94778008801222,None,,,,,,,,,,,,,,,,,,,,,,,,,,,,,,,,,,,,,,,,5,26,f,2021_Apr_09_2041,ldt_en_hi,2021.1.3,1420.7181065252626,
,,,,poldcemps,uccipt,left,3,,,,,,,,,,,,,0,59,59,40,,,,,,,,,,,,,,,,,,,,,,,,,None,129.82516240200493,None,,,,,,,126.42609960900154,None,126.42609960900154,None,left,1,3.3977143179945415,126.42609960900154,None,,,,,,,,,,,,,,,,,,,,,,,,,,,,,,,,,,,,,,,,5,26,f,2021_Apr_09_2041,ldt_en_hi,2021.1.3,1420.7181065252626,
,,,,continent,africa,right,1,,,,,,,,,,,,,0,60,60,2,,,,,,,,,,,,,,,,,,,,,,,,,None,131.1226470390102,None,,,,,,,130.3280311490089,None,130.3280311490089,None,right,1,0.7932557890017051,130.3280311490089,None,,,,,,,,,,,,,,,,,,,,,,,,,,,,,,,,,,,,,,,,5,26,f,2021_Apr_09_2041,ldt_en_hi,2021.1.3,1420.7181065252626,
,,,,entertain,begin,right,2,,,,,,,,,,,,,0,61,61,31,,,,,,,,,,,,,,,,,,,,,,,,,None,132.4516890780069,None,,,,,,,131.62625148500956,None,131.62625148500956,None,right,1,0.8240953539934708,131.62625148500956,None,,,,,,,,,,,,,,,,,,,,,,,,,,,,,,,,,,,,,,,,5,26,f,2021_Apr_09_2041,ldt_en_hi,2021.1.3,1420.7181065252626,
,,,,contract,bar,right,2,,,,,,,,,,,,,0,62,62,27,,,,,,,,,,,,,,,,,,,,,,,,,None,134.09222026100906,None,,,,,,,132.9548935040075,None,132.9548935040075,None,right,1,1.1359775099990657,132.9548935040075,None,,,,,,,,,,,,,,,,,,,,,,,,,,,,,,,,,,,,,,,,5,26,f,2021_Apr_09_2041,ldt_en_hi,2021.1.3,1420.7181065252626,
,,,,cauliflower,broccoli,right,1,,,,,,,,,,,,,0,63,63,12,,,,,,,,,,,,,,,,,,,,,,,,,None,135.42942519200733,None,,,,,,,134.5954021360085,None,134.5954021360085,None,right,1,0.8326574829989113,134.5954021360085,None,,,,,,,,,,,,,,,,,,,,,,,,,,,,,,,,,,,,,,,,5,26,f,2021_Apr_09_2041,ldt_en_hi,2021.1.3,1420.7181065252626,
,,,,valuabzr,additkos,left,3,,,,,,,,,,,,,0,64,64,42,,,,,,,,,,,,,,,,,,,,,,,,,None,137.02953319900553,None,,,,,,,135.932276165011,None,135.932276165011,None,left,1,1.0959090929973172,135.932276165011,None,,,,,,,,,,,,,,,,,,,,,,,,,,,,,,,,,,,,,,,,5,26,f,2021_Apr_09_2041,ldt_en_hi,2021.1.3,1420.7181065252626,
,,,,antidote,averake,left,5,,,,,,,,,,,,,0,65,65,58,,,,,,,,,,,,,,,,,,,,,,,,,None,138.5387271050131,None,,,,,,,137.53287423901202,None,137.53287423901202,None,left,1,1.0044990059977863,137.53287423901202,None,,,,,,,,,,,,,,,,,,,,,,,,,,,,,,,,,,,,,,,,5,26,f,2021_Apr_09_2041,ldt_en_hi,2021.1.3,1420.7181065252626,
,,,,ltbster,lecter,left,3,,,,,,,,,,,,,0,66,66,41,,,,,,,,,,,,,,,,,,,,,,,,,None,139.95229004800785,None,,,,,,,139.04224174701085,None,139.04224174701085,None,left,1,0.9087025159969926,139.04224174701085,None,,,,,,,,,,,,,,,,,,,,,,,,,,,,,,,,,,,,,,,,5,26,f,2021_Apr_09_2041,ldt_en_hi,2021.1.3,1420.7181065252626,
,,,,dasewn,ufraca,left,3,,,,,,,,,,,,,0,67,67,43,,,,,,,,,,,,,,,,,,,,,,,,,None,141.01142832101323,None,,,,,,,140.45513138300157,None,140.45513138300157,None,left,1,0.554924766998738,140.45513138300157,None,,,,,,,,,,,,,,,,,,,,,,,,,,,,,,,,,,,,,,,,5,26,f,2021_Apr_09_2041,ldt_en_hi,2021.1.3,1420.7181065252626,
,,,,data,beaufifsl,left,5,,,,,,,,,,,,,0,68,68,63,,,,,,,,,,,,,,,,,,,,,,,,,None,142.3162592180015,None,,,,,,,141.51444066301337,None,141.51444066301337,None,left,1,0.8003110489953542,141.51444066301337,None,,,,,,,,,,,,,,,,,,,,,,,,,,,,,,,,,,,,,,,,5,26,f,2021_Apr_09_2041,ldt_en_hi,2021.1.3,1420.7181065252626,
,,,,cowtnet,freedom,left,4,,,,,,,,,,,,,0,69,69,69,,,,,,,,,,,,,,,,,,,,,,,,,None,146.53133331901336,None,,,,,,,142.81953529700695,None,142.81953529700695,None,left,1,3.7103678220009897,142.81953529700695,None,,,,,,,,,,,,,,,,,,,,,,,,,,,,,,,,,,,,,,,,5,26,f,2021_Apr_09_2041,ldt_en_hi,2021.1.3,1420.7181065252626,
,,,,uneven,dival,left,5,,,,,,,,,,,,,0,70,70,55,,,,,,,,,,,,,,,,,,,,,,,,,None,148.27651506300026,None,,,,,,,147.03422445101023,None,147.03422445101023,None,left,1,1.2401689249963965,147.03422445101023,None,,,,,,,,,,,,,,,,,,,,,,,,,,,,,,,,,,,,,,,,5,26,f,2021_Apr_09_2041,ldt_en_hi,2021.1.3,1420.7181065252626,
,,,,explanation,answer,right,1,,,,,,,,,,,,,0,71,71,3,,,,,,,,,,,,,,,,,,,,,,,,,None,149.64414481000858,None,,,,,,,148.779874579006,None,148.779874579006,None,right,1,0.8628567109990399,148.779874579006,None,,,,,,,,,,,,,,,,,,,,,,,,,,,,,,,,,,,,,,,,5,26,f,2021_Apr_09_2041,ldt_en_hi,2021.1.3,1420.7181065252626,
,,,,disallow,beat,right,2,,,,,,,,,,,,,0,72,72,29,,,,,,,,,,,,,,,,,,,,,,,,,None,151.74434012600977,None,,,,,,,150.1470805410063,None,150.1470805410063,None,right,1,1.595909944997402,150.1470805410063,None,,,,,,,,,,,,,,,,,,,,,,,,,,,,,,,,,,,,,,,,5,26,f,2021_Apr_09_2041,ldt_en_hi,2021.1.3,1420.7181065252626,
,,,,displfow,pcycce,left,3,,,,,,,,,,,,,0,73,73,51,,,,,,,,,,,,,,,,,,,,,,,,,None,152.8982438230014,None,,,,,,,152.24776518800354,None,152.24776518800354,None,left,1,0.6491115340031683,152.24776518800354,None,,,,,,,,,,,,,,,,,,,,,,,,,,,,,,,,,,,,,,,,5,26,f,2021_Apr_09_2041,ldt_en_hi,2021.1.3,1420.7181065252626,
,,,,kitchen,cook,right,1,,,,,,,,,,,,,0,74,74,17,,,,,,,,,,,,,,,,,,,,,,,,,None,154.14291423100804,None,,,,,,,153.40147632300796,None,153.40147632300796,None,right,1,0.7400500410003588,153.40147632300796,None,,,,,,,,,,,,,,,,,,,,,,,,,,,,,,,,,,,,,,,,5,26,f,2021_Apr_09_2041,ldt_en_hi,2021.1.3,1420.7181065252626,
,,,,mabapine,environment,left,4,,,,,,,,,,,,,0,75,75,77,,,,,,,,,,,,,,,,,,,,,,,,,None,156.13691040601407,None,,,,,,,154.64581729201018,None,154.64581729201018,None,left,1,1.4894602069980465,154.64581729201018,None,,,,,,,,,,,,,,,,,,,,,,,,,,,,,,,,,,,,,,,,5,26,f,2021_Apr_09_2041,ldt_en_hi,2021.1.3,1420.7181065252626,
,,,,disown,atom,right,2,,,,,,,,,,,,,0,76,76,21,,,,,,,,,,,,,,,,,,,,,,,,,None,157.9262026630022,None,,,,,,,156.63979937200202,None,156.63979937200202,None,right,1,1.2849926890048664,156.63979937200202,None,,,,,,,,,,,,,,,,,,,,,,,,,,,,,,,,,,,,,,,,5,26,f,2021_Apr_09_2041,ldt_en_hi,2021.1.3,1420.7181065252626,
,,,,actress,actor,right,1,,,,,,,,,,,,,0,77,77,0,,,,,,,,,,,,,,,,,,,,,,,,,None,159.27005939900118,None,,,,,,,158.42982743000903,None,158.42982743000903,None,right,1,0.8387076749932021,158.42982743000903,None,,,,,,,,,,,,,,,,,,,,,,,,,,,,,,,,,,,,,,,,5,26,f,2021_Apr_09_2041,ldt_en_hi,2021.1.3,1420.7181065252626,
,,,,awbxenems,belvem,left,3,,,,,,,,,,,,,0,78,78,50,,,,,,,,,,,,,,,,,,,,,,,,,None,160.73175212500792,None,,,,,,,159.7734392590064,None,159.7734392590064,None,left,1,0.9569333380059106,159.7734392590064,None,,,,,,,,,,,,,,,,,,,,,,,,,,,,,,,,,,,,,,,,5,26,f,2021_Apr_09_2041,ldt_en_hi,2021.1.3,1420.7181065252626,
,,,,sister,brother,right,1,,,,,,,,,,,,,0,79,79,13,,,,,,,,,,,,,,,,,,,,,,,,,None,162.00857448500756,None,,,,,,,161.2348585340078,None,161.2348585340078,None,right,1,0.7720692439906998,161.2348585340078,None,,,,,,,,,,,,,,,,,,,,,,,,,,,,,,,,,,,,,,,,5,26,f,2021_Apr_09_2041,ldt_en_hi,2021.1.3,1420.7181065252626,
,,,,disbhvmeve,destroy,left,4,,,,,,,,,,,,,1,0,80,76,,,,,,,,,,,,,,,,,,,,,,,,,None,164.16892526201264,None,,,,,,,162.51192532900313,None,162.51192532900313,None,left,1,1.655629000000772,162.51192532900313,None,,,,,,,,,,,,,,,,,,,,,,,,,,,,,,,,,,,,,,,,5,26,f,2021_Apr_09_2041,ldt_en_hi,2021.1.3,1420.7181065252626,
,,,,contreqt,bcer,left,3,,,,,,,,,,,,,1,1,81,49,,,,,,,,,,,,,,,,,,,,,,,,,None,165.65300131301046,None,,,,,,,164.67211443801352,None,164.67211443801352,None,left,1,0.9795030819950625,164.67211443801352,None,,,,,,,,,,,,,,,,,,,,,,,,,,,,,,,,,,,,,,,,5,26,f,2021_Apr_09_2041,ldt_en_hi,2021.1.3,1420.7181065252626,
,,,,stpactin,fear,left,4,,,,,,,,,,,,,1,2,82,68,,,,,,,,,,,,,,,,,,,,,,,,,None,167.16021957801422,None,,,,,,,166.15596248800284,None,166.15596248800284,None,left,1,1.0028480239998316,166.15596248800284,None,,,,,,,,,,,,,,,,,,,,,,,,,,,,,,,,,,,,,,,,5,26,f,2021_Apr_09_2041,ldt_en_hi,2021.1.3,1420.7181065252626,
,,,,data,beaufifsl,left,5,,,,,,,,,,,,,1,3,83,63,,,,,,,,,,,,,,,,,,,,,,,,,None,168.8823908290069,None,,,,,,,167.66325360300834,None,167.66325360300834,None,left,1,1.2177574820088921,167.66325360300834,None,,,,,,,,,,,,,,,,,,,,,,,,,,,,,,,,,,,,,,,,5,26,f,2021_Apr_09_2041,ldt_en_hi,2021.1.3,1420.7181065252626,
,,,,exdlavstion,cloth,left,4,,,,,,,,,,,,,1,4,84,71,,,,,,,,,,,,,,,,,,,,,,,,,None,170.39678220401402,None,,,,,,,169.38594310400367,None,169.38594310400367,None,left,1,1.0094577279960504,169.38594310400367,None,,,,,,,,,,,,,,,,,,,,,,,,,,,,,,,,,,,,,,,,5,26,f,2021_Apr_09_2041,ldt_en_hi,2021.1.3,1420.7181065252626,
,,,,capability,attic,right,2,,,,,,,,,,,,,1,5,85,22,,,,,,,,,,,,,,,,,,,,,,,,,None,172.55879846001335,None,,,,,,,170.89979335501266,None,170.89979335501266,None,right,1,1.6575680829992052,170.89979335501266,None,,,,,,,,,,,,,,,,,,,,,,,,,,,,,,,,,,,,,,,,5,26,f,2021_Apr_09_2041,ldt_en_hi,2021.1.3,1420.7181065252626,
,,,,contract,bar,right,2,,,,,,,,,,,,,1,6,86,27,,,,,,,,,,,,,,,,,,,,,,,,,None,174.77669154200703,None,,,,,,,173.06186854300904,None,173.06186854300904,None,right,1,1.7134120279952185,173.06186854300904,None,,,,,,,,,,,,,,,,,,,,,,,,,,,,,,,,,,,,,,,,5,26,f,2021_Apr_09_2041,ldt_en_hi,2021.1.3,1420.7181065252626,
,,,,awareness,base,right,2,,,,,,,,,,,,,1,7,87,28,,,,,,,,,,,,,,,,,,,,,,,,,None,176.32785958400927,None,,,,,,,175.28066243600915,None,175.28066243600915,None,right,1,1.0457922779896762,175.28066243600915,None,,,,,,,,,,,,,,,,,,,,,,,,,,,,,,,,,,,,,,,,5,26,f,2021_Apr_09_2041,ldt_en_hi,2021.1.3,1420.7181065252626,
,,,,seem,bitch,right,2,,,,,,,,,,,,,1,8,88,34,,,,,,,,,,,,,,,,,,,,,,,,,None,177.96373431000393,None,,,,,,,176.83123391101253,None,176.83123391101253,None,right,1,1.1310939000104554,176.83123391101253,None,,,,,,,,,,,,,,,,,,,,,,,,,,,,,,,,,,,,,,,,5,26,f,2021_Apr_09_2041,ldt_en_hi,2021.1.3,1420.7181065252626,
,,,,tricycle,bicycle,right,1,,,,,,,,,,,,,1,9,89,9,,,,,,,,,,,,,,,,,,,,,,,,,None,179.26935193000827,None,,,,,,,178.46723553200718,None,178.46723553200718,None,right,1,0.8006863579939818,178.46723553200718,None,,,,,,,,,,,,,,,,,,,,,,,,,,,,,,,,,,,,,,,,5,26,f,2021_Apr_09_2041,ldt_en_hi,2021.1.3,1420.7181065252626,
,,,,valuable,devil,right,2,,,,,,,,,,,,,1,10,90,20,,,,,,,,,,,,,,,,,,,,,,,,,None,180.56813439700636,None,,,,,,,179.77237746000174,None,179.77237746000174,None,right,1,0.7943261680047726,179.77237746000174,None,,,,,,,,,,,,,,,,,,,,,,,,,,,,,,,,,,,,,,,,5,26,f,2021_Apr_09_2041,ldt_en_hi,2021.1.3,1420.7181065252626,
,,,,aczreis,duty,left,4,,,,,,,,,,,,,1,11,91,67,,,,,,,,,,,,,,,,,,,,,,,,,None,182.284707290004,None,,,,,,,181.07159971100918,None,181.07159971100918,None,left,1,1.2116923610010417,181.07159971100918,None,,,,,,,,,,,,,,,,,,,,,,,,,,,,,,,,,,,,,,,,5,26,f,2021_Apr_09_2041,ldt_en_hi,2021.1.3,1420.7181065252626,
,,,,busy,bored,right,1,,,,,,,,,,,,,1,12,92,11,,,,,,,,,,,,,,,,,,,,,,,,,None,187.75681641499978,None,,,,,,,182.78825358700124,None,182.78825358700124,None,right,1,4.966938925994327,182.78825358700124,None,,,,,,,,,,,,,,,,,,,,,,,,,,,,,,,,,,,,,,,,5,26,f,2021_Apr_09_2041,ldt_en_hi,2021.1.3,1420.7181065252626,
,,,,inquire,blush,right,2,,,,,,,,,,,,,1,13,93,39,,,,,,,,,,,,,,,,,,,,,,,,,None,189.18929670500802,None,,,,,,,188.26012367100338,None,188.26012367100338,None,right,1,0.9277707580040442,188.26012367100338,None,,,,,,,,,,,,,,,,,,,,,,,,,,,,,,,,,,,,,,,,5,26,f,2021_Apr_09_2041,ldt_en_hi,2021.1.3,1420.7181065252626,
,,,,lobster,crab,right,1,,,,,,,,,,,,,1,14,94,19,,,,,,,,,,,,,,,,,,,,,,,,,None,190.35996270400938,None,,,,,,,189.69275155900687,None,189.69275155900687,None,right,1,0.6657788299926324,189.69275155900687,None,,,,,,,,,,,,,,,,,,,,,,,,,,,,,,,,,,,,,,,,5,26,f,2021_Apr_09_2041,ldt_en_hi,2021.1.3,1420.7181065252626,
,,,,subtraction,addition,right,1,,,,,,,,,,,,,1,15,95,1,,,,,,,,,,,,,,,,,,,,,,,,,None,191.3888364190061,None,,,,,,,190.86291541800892,None,190.86291541800892,None,right,1,0.5245180280035129,190.86291541800892,None,,,,,,,,,,,,,,,,,,,,,,,,,,,,,,,,,,,,,,,,5,26,f,2021_Apr_09_2041,ldt_en_hi,2021.1.3,1420.7181065252626,
,,,,suggeyf,biurd,left,3,,,,,,,,,,,,,1,16,96,48,,,,,,,,,,,,,,,,,,,,,,,,,None,192.41835102000914,None,,,,,,,191.89163944200845,None,191.89163944200845,None,left,1,0.5253088630124694,191.89163944200845,None,,,,,,,,,,,,,,,,,,,,,,,,,,,,,,,,,,,,,,,,5,26,f,2021_Apr_09_2041,ldt_en_hi,2021.1.3,1420.7181065252626,
,,,,cricket,blow,right,2,,,,,,,,,,,,,1,17,97,37,,,,,,,,,,,,,,,,,,,,,,,,,None,193.66680055001052,None,,,,,,,192.9218676080054,None,192.9218676080054,None,right,1,0.7435062820004532,192.9218676080054,None,,,,,,,,,,,,,,,,,,,,,,,,,,,,,,,,,,,,,,,,5,26,f,2021_Apr_09_2041,ldt_en_hi,2021.1.3,1420.7181065252626,
,,,,displfow,pcycce,left,3,,,,,,,,,,,,,1,18,98,51,,,,,,,,,,,,,,,,,,,,,,,,,None,194.87583243800327,None,,,,,,,194.17007188900607,None,194.17007188900607,None,left,1,0.7043558420118643,194.17007188900607,None,,,,,,,,,,,,,,,,,,,,,,,,,,,,,,,,,,,,,,,,5,26,f,2021_Apr_09_2041,ldt_en_hi,2021.1.3,1420.7181065252626,
,,,,quantity,beautiful,right,2,,,,,,,,,,,,,1,19,99,30,,,,,,,,,,,,,,,,,,,,,,,,,None,196.471167583004,None,,,,,,,195.37977329001296,None,195.37977329001296,None,right,1,1.0899681750015588,195.37977329001296,None,,,,,,,,,,,,,,,,,,,,,,,,,,,,,,,,,,,,,,,,5,26,f,2021_Apr_09_2041,ldt_en_hi,2021.1.3,1420.7181065252626,
,,,,snuggle,atnton,left,5,,,,,,,,,,,,,1,20,100,56,,,,,,,,,,,,,,,,,,,,,,,,,None,197.99805069500871,None,,,,,,,196.97458661001292,None,196.97458661001292,None,left,1,1.0220638169994345,196.97458661001292,None,,,,,,,,,,,,,,,,,,,,,,,,,,,,,,,,,,,,,,,,5,26,f,2021_Apr_09_2041,ldt_en_hi,2021.1.3,1420.7181065252626,
,,,,blackboard,chalk,right,1,,,,,,,,,,,,,1,21,101,16,,,,,,,,,,,,,,,,,,,,,,,,,None,199.2873524660099,None,,,,,,,198.5012893420062,None,198.5012893420062,None,right,1,0.7846565830113832,198.5012893420062,None,,,,,,,,,,,,,,,,,,,,,,,,,,,,,,,,,,,,,,,,5,26,f,2021_Apr_09_2041,ldt_en_hi,2021.1.3,1420.7181065252626,
,,,,disagreement,blanket,right,2,,,,,,,,,,,,,1,22,102,36,,,,,,,,,,,,,,,,,,,,,,,,,None,200.80381335900165,None,,,,,,,199.79062953800894,None,199.79062953800894,None,right,1,1.0118001439986983,199.79062953800894,None,,,,,,,,,,,,,,,,,,,,,,,,,,,,,,,,,,,,,,,,5,26,f,2021_Apr_09_2041,ldt_en_hi,2021.1.3,1420.7181065252626,
,,,,mug,beer,right,1,,,,,,,,,,,,,1,23,103,7,,,,,,,,,,,,,,,,,,,,,,,,,None,201.9705375170015,None,,,,,,,201.30739531801373,None,201.30739531801373,None,right,1,0.6617097470007138,201.30739531801373,None,,,,,,,,,,,,,,,,,,,,,,,,,,,,,,,,,,,,,,,,5,26,f,2021_Apr_09_2041,ldt_en_hi,2021.1.3,1420.7181065252626,
,,,,explanation,answer,right,1,,,,,,,,,,,,,1,24,104,3,,,,,,,,,,,,,,,,,,,,,,,,,None,203.10092840000289,None,,,,,,,202.4741908750002,None,202.4741908750002,None,right,1,0.6252905149885919,202.4741908750002,None,,,,,,,,,,,,,,,,,,,,,,,,,,,,,,,,,,,,,,,,5,26,f,2021_Apr_09_2041,ldt_en_hi,2021.1.3,1420.7181065252626,
,,,,ballet,fgor,left,5,,,,,,,,,,,,,1,25,105,60,,,,,,,,,,,,,,,,,,,,,,,,,None,204.41545258300903,None,,,,,,,203.604031520008,None,203.604031520008,None,left,1,0.8100122259929776,203.604031520008,None,,,,,,,,,,,,,,,,,,,,,,,,,,,,,,,,,,,,,,,,5,26,f,2021_Apr_09_2041,ldt_en_hi,2021.1.3,1420.7181065252626,
,,,,harmful,cownr,left,5,,,,,,,,,,,,,1,26,106,61,,,,,,,,,,,,,,,,,,,,,,,,,None,205.67474937300722,None,,,,,,,204.91919360900647,None,204.91919360900647,None,left,1,0.7538708650099579,204.91919360900647,None,,,,,,,,,,,,,,,,,,,,,,,,,,,,,,,,,,,,,,,,5,26,f,2021_Apr_09_2041,ldt_en_hi,2021.1.3,1420.7181065252626,
,,,,uneven,dival,left,5,,,,,,,,,,,,,1,27,107,55,,,,,,,,,,,,,,,,,,,,,,,,,None,206.81613921500684,None,,,,,,,206.17783833701105,None,206.17783833701105,None,left,1,0.6368564399890602,206.17783833701105,None,,,,,,,,,,,,,,,,,,,,,,,,,,,,,,,,,,,,,,,,5,26,f,2021_Apr_09_2041,ldt_en_hi,2021.1.3,1420.7181065252626,
,,,,saucer,uttac,left,5,,,,,,,,,,,,,1,28,108,57,,,,,,,,,,,,,,,,,,,,,,,,,None,207.91756172101304,None,,,,,,,207.31961249800224,None,207.31961249800224,None,left,1,0.5965229409921449,207.31961249800224,None,,,,,,,,,,,,,,,,,,,,,,,,,,,,,,,,,,,,,,,,5,26,f,2021_Apr_09_2041,ldt_en_hi,2021.1.3,1420.7181065252626,
,,,,cauliflower,broccoli,right,1,,,,,,,,,,,,,1,29,109,12,,,,,,,,,,,,,,,,,,,,,,,,,None,209.12817143100256,None,,,,,,,208.4213555710012,None,208.4213555710012,None,right,1,0.7054042749950895,208.4213555710012,None,,,,,,,,,,,,,,,,,,,,,,,,,,,,,,,,,,,,,,,,5,26,f,2021_Apr_09_2041,ldt_en_hi,2021.1.3,1420.7181065252626,
,,,,quantyta,berid,left,3,,,,,,,,,,,,,1,30,110,52,,,,,,,,,,,,,,,,,,,,,,,,,None,210.38283031000174,None,,,,,,,209.63153959601186,None,209.63153959601186,None,left,1,0.7498728219943587,209.63153959601186,None,,,,,,,,,,,,,,,,,,,,,,,,,,,,,,,,,,,,,,,,5,26,f,2021_Apr_09_2041,ldt_en_hi,2021.1.3,1420.7181065252626,
,,,,ash,blue,right,2,,,,,,,,,,,,,1,31,111,38,,,,,,,,,,,,,,,,,,,,,,,,,None,211.93390487600118,None,,,,,,,210.8857725400012,None,210.8857725400012,None,right,1,1.0467211450013565,210.8857725400012,None,,,,,,,,,,,,,,,,,,,,,,,,,,,,,,,,,,,,,,,,5,26,f,2021_Apr_09_2041,ldt_en_hi,2021.1.3,1420.7181065252626,
,,,,busg,data,left,4,,,,,,,,,,,,,1,32,112,78,,,,,,,,,,,,,,,,,,,,,,,,,None,213.16415941000741,None,,,,,,,212.43751083200914,None,212.43751083200914,None,left,1,0.7252421279990813,212.43751083200914,None,,,,,,,,,,,,,,,,,,,,,,,,,,,,,,,,,,,,,,,,5,26,f,2021_Apr_09_2041,ldt_en_hi,2021.1.3,1420.7181065252626,
,,,,actor,axe,right,2,,,,,,,,,,,,,1,33,113,24,,,,,,,,,,,,,,,,,,,,,,,,,None,220.15979144201265,None,,,,,,,213.6675266000093,None,213.6675266000093,None,right,1,6.490752758996678,213.6675266000093,None,,,,,,,,,,,,,,,,,,,,,,,,,,,,,,,,,,,,,,,,5,26,f,2021_Apr_09_2041,ldt_en_hi,2021.1.3,1420.7181065252626,
,,,,capmpiwity,nney,left,3,,,,,,,,,,,,,1,34,114,44,,,,,,,,,,,,,,,,,,,,,,,,,None,221.3547535650141,None,,,,,,,220.6632555660035,None,220.6632555660035,None,left,1,0.6900856229913188,220.6632555660035,None,,,,,,,,,,,,,,,,,,,,,,,,,,,,,,,,,,,,,,,,5,26,f,2021_Apr_09_2041,ldt_en_hi,2021.1.3,1420.7181065252626,
,,,,mabapine,environment,left,4,,,,,,,,,,,,,1,35,115,77,,,,,,,,,,,,,,,,,,,,,,,,,None,222.74312871100847,None,,,,,,,221.85783476600773,None,221.85783476600773,None,left,1,0.8838438329985365,221.85783476600773,None,,,,,,,,,,,,,,,,,,,,,,,,,,,,,,,,,,,,,,,,5,26,f,2021_Apr_09_2041,ldt_en_hi,2021.1.3,1420.7181065252626,
,,,,mute,bygknner,left,5,,,,,,,,,,,,,1,36,116,65,,,,,,,,,,,,,,,,,,,,,,,,,None,223.85299069400935,None,,,,,,,223.24646248201316,None,223.24646248201316,None,left,1,0.6051088960084599,223.24646248201316,None,,,,,,,,,,,,,,,,,,,,,,,,,,,,,,,,,,,,,,,,5,26,f,2021_Apr_09_2041,ldt_en_hi,2021.1.3,1420.7181065252626,
,,,,continent,africa,right,1,,,,,,,,,,,,,1,37,117,2,,,,,,,,,,,,,,,,,,,,,,,,,None,225.01135047900607,None,,,,,,,224.35630761001084,None,224.35630761001084,None,right,1,0.653640781994909,224.35630761001084,None,,,,,,,,,,,,,,,,,,,,,,,,,,,,,,,,,,,,,,,,5,26,f,2021_Apr_09_2041,ldt_en_hi,2021.1.3,1420.7181065252626,
,,,,adorable,bckpwck,left,5,,,,,,,,,,,,,1,38,118,59,,,,,,,,,,,,,,,,,,,,,,,,,None,226.44033377700543,None,,,,,,,225.5148475770111,None,225.5148475770111,None,left,1,0.9240679689974058,225.5148475770111,None,,,,,,,,,,,,,,,,,,,,,,,,,,,,,,,,,,,,,,,,5,26,f,2021_Apr_09_2041,ldt_en_hi,2021.1.3,1420.7181065252626,
,,,,caklqblower,fashion,left,4,,,,,,,,,,,,,1,39,119,79,,,,,,,,,,,,,,,,,,,,,,,,,None,227.81805211900792,None,,,,,,,226.9438447220018,None,226.9438447220018,None,left,1,0.8727827689872356,226.9438447220018,None,,,,,,,,,,,,,,,,,,,,,,,,,,,,,,,,,,,,,,,,5,26,f,2021_Apr_09_2041,ldt_en_hi,2021.1.3,1420.7181065252626,
,,,,region,blame,right,2,,,,,,,,,,,,,1,40,120,35,,,,,,,,,,,,,,,,,,,,,,,,,None,229.06560209800955,None,,,,,,,228.32196735001344,None,228.32196735001344,None,right,1,0.7420489489886677,228.32196735001344,None,,,,,,,,,,,,,,,,,,,,,,,,,,,,,,,,,,,,,,,,5,26,f,2021_Apr_09_2041,ldt_en_hi,2021.1.3,1420.7181065252626,
,,,,mgstachi,forest,left,4,,,,,,,,,,,,,1,41,121,74,,,,,,,,,,,,,,,,,,,,,,,,,None,230.4282492850034,None,,,,,,,229.56974186800653,None,229.56974186800653,None,left,1,0.8569147630041698,229.56974186800653,None,,,,,,,,,,,,,,,,,,,,,,,,,,,,,,,,,,,,,,,,5,26,f,2021_Apr_09_2041,ldt_en_hi,2021.1.3,1420.7181065252626,
,,,,magazine,book,right,1,,,,,,,,,,,,,1,42,122,10,,,,,,,,,,,,,,,,,,,,,,,,,None,231.63195518701104,None,,,,,,,230.93263841001317,None,230.93263841001317,None,right,1,0.6978036800137488,230.93263841001317,None,,,,,,,,,,,,,,,,,,,,,,,,,,,,,,,,,,,,,,,,5,26,f,2021_Apr_09_2041,ldt_en_hi,2021.1.3,1420.7181065252626,
,,,,frugtry,cheat,left,4,,,,,,,,,,,,,1,43,123,70,,,,,,,,,,,,,,,,,,,,,,,,,None,233.18906359100947,None,,,,,,,232.13639116400736,None,232.13639116400736,None,left,1,1.0512282220006455,232.13639116400736,None,,,,,,,,,,,,,,,,,,,,,,,,,,,,,,,,,,,,,,,,5,26,f,2021_Apr_09_2041,ldt_en_hi,2021.1.3,1420.7181065252626,
,,,,ltbster,lecter,left,3,,,,,,,,,,,,,1,44,124,41,,,,,,,,,,,,,,,,,,,,,,,,,None,234.96020060201408,None,,,,,,,233.69268873200053,None,233.69268873200053,None,left,1,1.266078568994999,233.69268873200053,None,,,,,,,,,,,,,,,,,,,,,,,,,,,,,,,,,,,,,,,,5,26,f,2021_Apr_09_2041,ldt_en_hi,2021.1.3,1420.7181065252626,
,,,,riject,farm,left,4,,,,,,,,,,,,,1,45,125,66,,,,,,,,,,,,,,,,,,,,,,,,,None,236.91988350001338,None,,,,,,,235.4688828770013,None,235.4688828770013,None,right,0,1.4495711339986883,235.4688828770013,None,,,,,,,,,,,,,,,,,,,,,,,,,,,,,,,,,,,,,,,,5,26,f,2021_Apr_09_2041,ldt_en_hi,2021.1.3,1420.7181065252626,
,,,,entertain,begin,right,2,,,,,,,,,,,,,1,46,126,31,,,,,,,,,,,,,,,,,,,,,,,,,None,238.3920655180118,None,,,,,,,237.42315953400976,None,237.42315953400976,None,right,1,0.9674828689894639,237.42315953400976,None,,,,,,,,,,,,,,,,,,,,,,,,,,,,,,,,,,,,,,,,5,26,f,2021_Apr_09_2041,ldt_en_hi,2021.1.3,1420.7181065252626,
,,,,suggest,ballet,right,2,,,,,,,,,,,,,1,47,127,26,,,,,,,,,,,,,,,,,,,,,,,,,None,239.86839665099978,None,,,,,,,238.89510763600993,None,238.89510763600993,None,right,1,0.9718481690069893,238.89510763600993,None,,,,,,,,,,,,,,,,,,,,,,,,,,,,,,,,,,,,,,,,5,26,f,2021_Apr_09_2041,ldt_en_hi,2021.1.3,1420.7181065252626,
,,,,ocbohus,bitch,left,4,,,,,,,,,,,,,1,48,128,72,,,,,,,,,,,,,,,,,,,,,,,,,None,241.27657269200427,None,,,,,,,240.37192360100744,None,240.37192360100744,None,left,1,0.9032050520036137,240.37192360100744,None,,,,,,,,,,,,,,,,,,,,,,,,,,,,,,,,,,,,,,,,5,26,f,2021_Apr_09_2041,ldt_en_hi,2021.1.3,1420.7181065252626,
,,,,adverb,backpack,right,2,,,,,,,,,,,,,1,49,129,25,,,,,,,,,,,,,,,,,,,,,,,,,None,242.3869956250128,None,,,,,,,241.7802336080058,None,241.7802336080058,None,left,0,0.6052998160012066,241.7802336080058,None,,,,,,,,,,,,,,,,,,,,,,,,,,,,,,,,,,,,,,,,5,26,f,2021_Apr_09_2041,ldt_en_hi,2021.1.3,1420.7181065252626,
,,,,corpse,bigan,left,5,,,,,,,,,,,,,1,50,130,64,,,,,,,,,,,,,,,,,,,,,,,,,None,245.1849946680013,None,,,,,,,242.8904155550117,None,242.8904155550117,None,right,0,2.2931238540040795,242.8904155550117,None,,,,,,,,,,,,,,,,,,,,,,,,,,,,,,,,,,,,,,,,5,26,f,2021_Apr_09_2041,ldt_en_hi,2021.1.3,1420.7181065252626,
,,,,mustache,beard,right,1,,,,,,,,,,,,,1,51,131,6,,,,,,,,,,,,,,,,,,,,,,,,,None,246.6677066100092,None,,,,,,,245.68840869500127,None,245.68840869500127,None,right,1,0.9778726160002407,245.68840869500127,None,,,,,,,,,,,,,,,,,,,,,,,,,,,,,,,,,,,,,,,,5,26,f,2021_Apr_09_2041,ldt_en_hi,2021.1.3,1420.7181065252626,
,,,,tumor,cancer,right,1,,,,,,,,,,,,,1,52,132,14,,,,,,,,,,,,,,,,,,,,,,,,,None,247.76992311100184,None,,,,,,,247.17160965900985,None,247.17160965900985,None,right,1,0.5967821910016937,247.17160965900985,None,,,,,,,,,,,,,,,,,,,,,,,,,,,,,,,,,,,,,,,,5,26,f,2021_Apr_09_2041,ldt_en_hi,2021.1.3,1420.7181065252626,
,,,,perform,average,right,2,,,,,,,,,,,,,1,53,133,23,,,,,,,,,,,,,,,,,,,,,,,,,None,248.95916648001003,None,,,,,,,248.27354872200522,None,248.27354872200522,None,right,1,0.6841638819896616,248.27354872200522,None,,,,,,,,,,,,,,,,,,,,,,,,,,,,,,,,,,,,,,,,5,26,f,2021_Apr_09_2041,ldt_en_hi,2021.1.3,1420.7181065252626,
,,,,poldcemps,uccipt,left,3,,,,,,,,,,,,,1,54,134,40,,,,,,,,,,,,,,,,,,,,,,,,,None,250.1297625540028,None,,,,,,,249.46280466701137,None,249.46280466701137,None,left,1,0.6655241400003433,249.46280466701137,None,,,,,,,,,,,,,,,,,,,,,,,,,,,,,,,,,,,,,,,,5,26,f,2021_Apr_09_2041,ldt_en_hi,2021.1.3,1420.7181065252626,
,,,,anteater,belt,right,2,,,,,,,,,,,,,1,55,135,33,,,,,,,,,,,,,,,,,,,,,,,,,None,251.6942088450014,None,,,,,,,250.63329566200264,None,250.63329566200264,None,right,1,1.0594697699998505,250.63329566200264,None,,,,,,,,,,,,,,,,,,,,,,,,,,,,,,,,,,,,,,,,5,26,f,2021_Apr_09_2041,ldt_en_hi,2021.1.3,1420.7181065252626,
,,,,kitchen,cook,right,1,,,,,,,,,,,,,1,56,136,17,,,,,,,,,,,,,,,,,,,,,,,,,None,252.87620536801114,None,,,,,,,252.19754565801122,None,252.19754565801122,None,right,1,0.6771919629973127,252.19754565801122,None,,,,,,,,,,,,,,,,,,,,,,,,,,,,,,,,,,,,,,,,5,26,f,2021_Apr_09_2041,ldt_en_hi,2021.1.3,1420.7181065252626,
,,,,awbxenems,belvem,left,3,,,,,,,,,,,,,1,57,137,50,,,,,,,,,,,,,,,,,,,,,,,,,None,254.01832882300369,None,,,,,,,253.37925756000914,None,253.37925756000914,None,left,1,0.6376447020011256,253.37925756000914,None,,,,,,,,,,,,,,,,,,,,,,,,,,,,,,,,,,,,,,,,5,26,f,2021_Apr_09_2041,ldt_en_hi,2021.1.3,1420.7181065252626,
,,,,ucter,arks,left,3,,,,,,,,,,,,,1,58,138,46,,,,,,,,,,,,,,,,,,,,,,,,,None,255.26143878001312,None,,,,,,,254.52161481700023,None,254.52161481700023,None,left,1,0.7383587700023782,254.52161481700023,None,,,,,,,,,,,,,,,,,,,,,,,,,,,,,,,,,,,,,,,,5,26,f,2021_Apr_09_2041,ldt_en_hi,2021.1.3,1420.7181065252626,
,,,,antidote,averake,left,5,,,,,,,,,,,,,1,59,139,58,,,,,,,,,,,,,,,,,,,,,,,,,None,256.4039966180135,None,,,,,,,255.76506047300063,None,255.76506047300063,None,left,1,0.6374893199972576,255.76506047300063,None,,,,,,,,,,,,,,,,,,,,,,,,,,,,,,,,,,,,,,,,5,26,f,2021_Apr_09_2041,ldt_en_hi,2021.1.3,1420.7181065252626,
,,,,rug,carpet,right,1,,,,,,,,,,,,,1,60,140,15,,,,,,,,,,,,,,,,,,,,,,,,,None,257.64322473500215,None,,,,,,,256.90734652700485,None,256.90734652700485,None,right,1,0.7344450599921402,256.90734652700485,None,,,,,,,,,,,,,,,,,,,,,,,,,,,,,,,,,,,,,,,,5,26,f,2021_Apr_09_2041,ldt_en_hi,2021.1.3,1420.7181065252626,
,,,,imhge,eyes,left,4,,,,,,,,,,,,,1,61,141,75,,,,,,,,,,,,,,,,,,,,,,,,,None,258.9840685950039,None,,,,,,,258.14629705900734,None,258.14629705900734,None,left,1,0.8363394519983558,258.14629705900734,None,,,,,,,,,,,,,,,,,,,,,,,,,,,,,,,,,,,,,,,,5,26,f,2021_Apr_09_2041,ldt_en_hi,2021.1.3,1420.7181065252626,
,,,,valuabzr,additkos,left,3,,,,,,,,,,,,,1,62,142,42,,,,,,,,,,,,,,,,,,,,,,,,,None,260.06799974701426,None,,,,,,,259.48754573501355,None,259.48754573501355,None,left,1,0.5790139610035112,259.48754573501355,None,,,,,,,,,,,,,,,,,,,,,,,,,,,,,,,,,,,,,,,,5,26,f,2021_Apr_09_2041,ldt_en_hi,2021.1.3,1420.7181065252626,
,,,,perigrm,unswir,left,3,,,,,,,,,,,,,1,63,143,45,,,,,,,,,,,,,,,,,,,,,,,,,None,261.17682752800465,None,,,,,,,260.57112164499995,None,260.57112164499995,None,left,1,0.6042895749997115,260.57112164499995,None,,,,,,,,,,,,,,,,,,,,,,,,,,,,,,,,,,,,,,,,5,26,f,2021_Apr_09_2041,ldt_en_hi,2021.1.3,1420.7181065252626,
,,,,invent,ceok,left,5,,,,,,,,,,,,,1,64,144,53,,,,,,,,,,,,,,,,,,,,,,,,,None,262.25609654100845,None,,,,,,,261.68052670700126,None,261.68052670700126,None,left,1,0.5741353310004342,261.68052670700126,None,,,,,,,,,,,,,,,,,,,,,,,,,,,,,,,,,,,,,,,,5,26,f,2021_Apr_09_2041,ldt_en_hi,2021.1.3,1420.7181065252626,
,,,,disbelieve,believe,right,1,,,,,,,,,,,,,1,65,145,8,,,,,,,,,,,,,,,,,,,,,,,,,None,263.40508667701215,None,,,,,,,262.759663697012,None,262.759663697012,None,right,1,0.643985974995303,262.759663697012,None,,,,,,,,,,,,,,,,,,,,,,,,,,,,,,,,,,,,,,,,5,26,f,2021_Apr_09_2041,ldt_en_hi,2021.1.3,1420.7181065252626,
,,,,cowtnet,freedom,left,4,,,,,,,,,,,,,1,66,146,69,,,,,,,,,,,,,,,,,,,,,,,,,None,265.2130995970074,None,,,,,,,263.9086768480047,None,263.9086768480047,None,left,1,1.3029952939978102,263.9086768480047,None,,,,,,,,,,,,,,,,,,,,,,,,,,,,,,,,,,,,,,,,5,26,f,2021_Apr_09_2041,ldt_en_hi,2021.1.3,1420.7181065252626,
,,,,buws,decide,left,4,,,,,,,,,,,,,1,67,147,73,,,,,,,,,,,,,,,,,,,,,,,,,None,267.05185257700214,None,,,,,,,265.71654869600025,None,265.71654869600025,None,left,1,1.333872203991632,265.71654869600025,None,,,,,,,,,,,,,,,,,,,,,,,,,,,,,,,,,,,,,,,,5,26,f,2021_Apr_09_2041,ldt_en_hi,2021.1.3,1420.7181065252626,
,,,,adventure,bnat,left,5,,,,,,,,,,,,,1,68,148,62,,,,,,,,,,,,,,,,,,,,,,,,,None,268.26048479600286,None,,,,,,,267.5549576070043,None,267.5549576070043,None,left,1,0.7040679130004719,267.5549576070043,None,,,,,,,,,,,,,,,,,,,,,,,,,,,,,,,,,,,,,,,,5,26,f,2021_Apr_09_2041,ldt_en_hi,2021.1.3,1420.7181065252626,
,,,,bow,arrow,right,1,,,,,,,,,,,,,1,69,149,5,,,,,,,,,,,,,,,,,,,,,,,,,None,269.4382589920133,None,,,,,,,268.76361814601114,None,268.76361814601114,None,right,1,0.673209765998763,268.76361814601114,None,,,,,,,,,,,,,,,,,,,,,,,,,,,,,,,,,,,,,,,,5,26,f,2021_Apr_09_2041,ldt_en_hi,2021.1.3,1420.7181065252626,
,,,,dasewn,ufraca,left,3,,,,,,,,,,,,,1,70,150,43,,,,,,,,,,,,,,,,,,,,,,,,,None,270.5619856370031,None,,,,,,,269.9421094890131,None,269.9421094890131,None,left,1,0.6184466080012498,269.9421094890131,None,,,,,,,,,,,,,,,,,,,,,,,,,,,,,,,,,,,,,,,,5,26,f,2021_Apr_09_2041,ldt_en_hi,2021.1.3,1420.7181065252626,
,,,,sister,brother,right,1,,,,,,,,,,,,,1,71,151,13,,,,,,,,,,,,,,,,,,,,,,,,,None,271.73056068000733,None,,,,,,,271.0655877810059,None,271.0655877810059,None,right,1,0.6635377010097727,271.0655877810059,None,,,,,,,,,,,,,,,,,,,,,,,,,,,,,,,,,,,,,,,,5,26,f,2021_Apr_09_2041,ldt_en_hi,2021.1.3,1420.7181065252626,
,,,,policeman,cop,right,1,,,,,,,,,,,,,1,72,152,18,,,,,,,,,,,,,,,,,,,,,,,,,None,272.94128881400684,None,,,,,,,272.2337226510135,None,272.2337226510135,None,right,1,0.7061188930092612,272.2337226510135,None,,,,,,,,,,,,,,,,,,,,,,,,,,,,,,,,,,,,,,,,5,26,f,2021_Apr_09_2041,ldt_en_hi,2021.1.3,1420.7181065252626,
,,,,udvirb,prew,left,3,,,,,,,,,,,,,1,73,153,47,,,,,,,,,,,,,,,,,,,,,,,,,None,274.22736189900024,None,,,,,,,273.4449140860088,None,273.4449140860088,None,left,1,0.7809904349996941,273.4449140860088,None,,,,,,,,,,,,,,,,,,,,,,,,,,,,,,,,,,,,,,,,5,26,f,2021_Apr_09_2041,ldt_en_hi,2021.1.3,1420.7181065252626,
,,,,octopus,arms,right,1,,,,,,,,,,,,,1,74,154,4,,,,,,,,,,,,,,,,,,,,,,,,,None,275.48907468000834,None,,,,,,,274.7308737820131,None,274.7308737820131,None,right,1,0.7567713139869738,274.7308737820131,None,,,,,,,,,,,,,,,,,,,,,,,,,,,,,,,,,,,,,,,,5,26,f,2021_Apr_09_2041,ldt_en_hi,2021.1.3,1420.7181065252626,
,,,,fury,beginner,right,2,,,,,,,,,,,,,1,75,155,32,,,,,,,,,,,,,,,,,,,,,,,,,None,276.81292246401426,None,,,,,,,275.99258484100574,None,275.99258484100574,None,right,1,0.818737779991352,275.99258484100574,None,,,,,,,,,,,,,,,,,,,,,,,,,,,,,,,,,,,,,,,,5,26,f,2021_Apr_09_2041,ldt_en_hi,2021.1.3,1420.7181065252626,
,,,,disown,atom,right,2,,,,,,,,,,,,,1,76,156,21,,,,,,,,,,,,,,,,,,,,,,,,,None,277.9747727030044,None,,,,,,,277.3163517990033,None,277.3163517990033,None,right,1,0.6569886020006379,277.3163517990033,None,,,,,,,,,,,,,,,,,,,,,,,,,,,,,,,,,,,,,,,,5,26,f,2021_Apr_09_2041,ldt_en_hi,2021.1.3,1420.7181065252626,
,,,,actress,actor,right,1,,,,,,,,,,,,,1,77,157,0,,,,,,,,,,,,,,,,,,,,,,,,,None,279.03917487501167,None,,,,,,,278.4787378740002,None,278.4787378740002,None,right,1,0.5589705000020331,278.4787378740002,None,,,,,,,,,,,,,,,,,,,,,,,,,,,,,,,,,,,,,,,,5,26,f,2021_Apr_09_2041,ldt_en_hi,2021.1.3,1420.7181065252626,
,,,,inventor,leab,left,5,,,,,,,,,,,,,1,78,158,54,,,,,,,,,,,,,,,,,,,,,,,,,None,280.4919696500001,None,,,,,,,279.54230326000834,None,279.54230326000834,None,right,0,0.9482034409884363,279.54230326000834,None,,,,,,,,,,,,,,,,,,,,,,,,,,,,,,,,,,,,,,,,5,26,f,2021_Apr_09_2041,ldt_en_hi,2021.1.3,1420.7181065252626,
,,,,disallow,beat,right,2,,,,,,,,,,,,,1,79,159,29,,,,,,,,,,,,,,,,,,,,,,,,,None,281.9504899090098,None,,,,,,,280.99528377401293,None,280.99528377401293,None,right,1,0.9537435520032886,280.99528377401293,None,,,,,,,,,,,,,,,,,,,,,,,,,,,,,,,,,,,,,,,,5,26,f,2021_Apr_09_2041,ldt_en_hi,2021.1.3,1420.7181065252626,
,,,,,,,,,,,,,,,,,,,,,,,,,,,,,,,,,,,,,,,,,,,,,,,,,,,,,,,,,,,,,,,,,,282.451941642008,None,right,0,14.479800663000788,282.451941642008,None,,,,,,,,,,,,,,,,,,,,,,,,,,,,,,,,,5,26,f,2021_Apr_09_2041,ldt_en_hi,2021.1.3,1420.7181065252626,
,,,,,,,,नेता,follower,right,6,,,,,,,,,,,,,0,0,0,0,,,,,,,,,,,,,,,,,,,,,None,297.94462097401265,None,,,,,,,,,,,,,,,,,,,,,,,296.96938369001145,None,296.96938369001145,None,right,1,0.9734112989972346,296.96938369001145,None,,,,,,,,,,,,,,,,,,,,,,,,5,26,f,2021_Apr_09_2041,ldt_en_hi,2021.1.3,1420.7181065252626,
,,,,,,,,टराव,explanation,left,9,,,,,,,,,,,,,0,1,1,2,,,,,,,,,,,,,,,,,,,,,None,299.3094447730109,None,,,,,,,,,,,,,,,,,,,,,,,298.47353129301337,None,298.47353129301337,None,left,1,0.8343416209972929,298.47353129301337,None,,,,,,,,,,,,,,,,,,,,,,,,5,26,f,2021_Apr_09_2041,ldt_en_hi,2021.1.3,1420.7181065252626,
,,,,,,,,भेंस,imhge,left,10,,,,,,,,,,,,,0,2,2,4,,,,,,,,,,,,,,,,,,,,,None,300.86928467301186,None,,,,,,,,,,,,,,,,,,,,,,,299.83603449800285,None,299.83603449800285,None,left,1,1.0318247100076405,299.83603449800285,None,,,,,,,,,,,,,,,,,,,,,,,,5,26,f,2021_Apr_09_2041,ldt_en_hi,2021.1.3,1420.7181065252626,
,,,,,,,,मेंढक,deaf,right,7,,,,,,,,,,,,,0,3,3,3,,,,,,,,,,,,,,,,,,,,,None,302.57059867100907,None,,,,,,,,,,,,,,,,,,,,,,,301.4040087320027,None,301.4040087320027,None,right,1,1.1651541830069618,301.4040087320027,None,,,,,,,,,,,,,,,,,,,,,,,,5,26,f,2021_Apr_09_2041,ldt_en_hi,2021.1.3,1420.7181065252626,
,,,,,,,,नता,babi,left,8,,,,,,,,,,,,,0,4,4,1,,,,,,,,,,,,,,,,,,,,,None,304.1574458360119,None,,,,,,,,,,,,,,,,,,,,,,,303.07414160300686,None,303.07414160300686,None,left,1,1.0818425899924478,303.07414160300686,None,,,,,,,,,,,,,,,,,,,,,,,,5,26,f,2021_Apr_09_2041,ldt_en_hi,2021.1.3,1420.7181065252626,
,,,,,,,,,,,,,,,,,,,,,,,,,,,,,,,,,,,,,,,,,,,,,,,,,,,304.65820721800264,None,right,0.9049685809877701,304.65820721800264,None,,,,,,,,,,,,,,,,,,,,,,,,,,,,,,,,,,,,,,,,,,,,,,,,,5,26,f,2021_Apr_09_2041,ldt_en_hi,2021.1.3,1420.7181065252626,
,,,,,,,,,,,,मैदान,blush,right,7,,,,,,,,,,,,,0,0,0,26,,,,,,,,,,,,,,,,,None,306.95573592300934,None,,,,,,,,,,,,,,,,,,,,,,,,,,,,,,,,305.6017177920003,None,305.6017177920003,None,right,1,1.3519809319986962,305.6017177920003,None,,,,,,,,,,,,,,,5,26,f,2021_Apr_09_2041,ldt_en_hi,2021.1.3,1420.7181065252626,
,,,,,,,,,,,,असमल,beaufifsl,left,8,,,,,,,,,,,,,0,1,1,66,,,,,,,,,,,,,,,,,None,308.38659353500407,None,,,,,,,,,,,,,,,,,,,,,,,,,,,,,,,,307.48494119501265,None,307.48494119501265,None,left,1,0.9002173420012696,307.48494119501265,None,,,,,,,,,,,,,,,5,26,f,2021_Apr_09_2041,ldt_en_hi,2021.1.3,1420.7181065252626,
,,,,,,,,,,,,अजमदा,uttac,left,8,,,,,,,,,,,,,0,2,2,62,,,,,,,,,,,,,,,,,None,309.80803751001076,None,,,,,,,,,,,,,,,,,,,,,,,,,,,,,,,,308.90286883700173,None,308.90286883700173,None,left,1,0.9037348049896536,308.90286883700173,None,,,,,,,,,,,,,,,5,26,f,2021_Apr_09_2041,ldt_en_hi,2021.1.3,1420.7181065252626,
,,,,,,,,,,,,केला,diary,right,7,,,,,,,,,,,,,0,3,3,37,,,,,,,,,,,,,,,,,None,311.452046868013,None,,,,,,,,,,,,,,,,,,,,,,,,,,,,,,,,310.3120039760106,None,310.3120039760106,None,right,1,1.1385446770000271,310.3120039760106,None,,,,,,,,,,,,,,,5,26,f,2021_Apr_09_2041,ldt_en_hi,2021.1.3,1420.7181065252626,
,,,,,,,,,,,,अनुबध,leab,left,8,,,,,,,,,,,,,0,4,4,59,,,,,,,,,,,,,,,,,None,313.5126937460009,None,,,,,,,,,,,,,,,,,,,,,,,,,,,,,,,,311.97846210200805,None,311.97846210200805,None,left,1,1.5327667669916991,311.97846210200805,None,,,,,,,,,,,,,,,5,26,f,2021_Apr_09_2041,ldt_en_hi,2021.1.3,1420.7181065252626,
,,,,,,,,,,,,बातचीत,busg,left,10,,,,,,,,,,,,,0,5,5,43,,,,,,,,,,,,,,,,,None,315.32125405801344,None,,,,,,,,,,,,,,,,,,,,,,,,,,,,,,,,314.03840977601067,None,314.03840977601067,None,left,1,1.281374511992908,314.03840977601067,None,,,,,,,,,,,,,,,5,26,f,2021_Apr_09_2041,ldt_en_hi,2021.1.3,1420.7181065252626,
,,,,,,,,,,,,वन,chaos,right,7,,,,,,,,,,,,,0,6,6,33,,,,,,,,,,,,,,,,,None,316.950098101006,None,,,,,,,,,,,,,,,,,,,,,,,,,,,,,,,,315.8246147620084,None,315.8246147620084,None,right,1,1.1240135300031397,315.8246147620084,None,,,,,,,,,,,,,,,5,26,f,2021_Apr_09_2041,ldt_en_hi,2021.1.3,1420.7181065252626,
,,,,,,,,,,,,भावना,employer,right,7,,,,,,,,,,,,,0,7,7,24,,,,,,,,,,,,,,,,,None,318.65021027800685,None,,,,,,,,,,,,,,,,,,,,,,,,,,,,,,,,317.45357690000674,None,317.45357690000674,None,right,1,1.1951402769918786,317.45357690000674,None,,,,,,,,,,,,,,,5,26,f,2021_Apr_09_2041,ldt_en_hi,2021.1.3,1420.7181065252626,
,,,,,,,,,,,,मगरम,hodker,left,8,,,,,,,,,,,,,0,8,8,54,,,,,,,,,,,,,,,,,None,320.3156635780033,None,,,,,,,,,,,,,,,,,,,,,,,,,,,,,,,,319.1654806389997,None,319.1654806389997,None,left,1,1.1484771700052079,319.1654806389997,None,,,,,,,,,,,,,,,5,26,f,2021_Apr_09_2041,ldt_en_hi,2021.1.3,1420.7181065252626,
,,,,,,,,,,,,अभिनय,disbhvmeve,left,10,,,,,,,,,,,,,0,9,9,41,,,,,,,,,,,,,,,,,None,322.31142591001117,None,,,,,,,,,,,,,,,,,,,,,,,,,,,,,,,,320.8446785410051,None,320.8446785410051,None,left,1,1.4652852959989104,320.8446785410051,None,,,,,,,,,,,,,,,5,26,f,2021_Apr_09_2041,ldt_en_hi,2021.1.3,1420.7181065252626,
,,,,,,,,,,,,साल,age,right,6,,,,,,,,,,,,,0,10,10,0,,,,,,,,,,,,,,,,,None,323.9817659690016,None,,,,,,,,,,,,,,,,,,,,,,,,,,,,,,,,322.81443687700084,None,322.81443687700084,None,right,1,1.1658777989941882,322.81443687700084,None,,,,,,,,,,,,,,,5,26,f,2021_Apr_09_2041,ldt_en_hi,2021.1.3,1420.7181065252626,
,,,,,,,,,,,,लड़ाकू,boxer,right,6,,,,,,,,,,,,,0,11,11,9,,,,,,,,,,,,,,,,,None,325.63755272200797,None,,,,,,,,,,,,,,,,,,,,,,,,,,,,,,,,324.5004306700139,None,324.5004306700139,None,right,1,1.13563924698974,324.5004306700139,None,,,,,,,,,,,,,,,5,26,f,2021_Apr_09_2041,ldt_en_hi,2021.1.3,1420.7181065252626,
,,,,,,,,,,,,पागल,crazy,right,6,,,,,,,,,,,,,0,12,12,16,,,,,,,,,,,,,,,,,None,327.0033968670032,None,,,,,,,,,,,,,,,,,,,,,,,,,,,,,,,,326.1515284699999,None,326.1515284699999,None,right,1,0.8501432449993445,326.1515284699999,None,,,,,,,,,,,,,,,5,26,f,2021_Apr_09_2041,ldt_en_hi,2021.1.3,1420.7181065252626,
,,,,,,,,,,,,गणित,biology,right,6,,,,,,,,,,,,,0,13,13,6,,,,,,,,,,,,,,,,,None,330.2493145250046,None,,,,,,,,,,,,,,,,,,,,,,,,,,,,,,,,327.51896127501095,None,327.51896127501095,None,left,0,2.728890804006369,327.51896127501095,None,,,,,,,,,,,,,,,5,26,f,2021_Apr_09_2041,ldt_en_hi,2021.1.3,1420.7181065252626,
,,,,,,,,,,,,गहना,diamond,right,6,,,,,,,,,,,,,0,14,14,20,,,,,,,,,,,,,,,,,None,332.15809760900447,None,,,,,,,,,,,,,,,,,,,,,,,,,,,,,,,,330.7662628120015,None,330.7662628120015,None,right,1,1.3903576180018717,330.7662628120015,None,,,,,,,,,,,,,,,5,26,f,2021_Apr_09_2041,ldt_en_hi,2021.1.3,1420.7181065252626,
,,,,,,,,,,,,जापान,cheat,right,7,,,,,,,,,,,,,0,15,15,22,,,,,,,,,,,,,,,,,None,333.5350936920004,None,,,,,,,,,,,,,,,,,,,,,,,,,,,,,,,,332.66166175300896,None,332.66166175300896,None,right,1,0.8719526869972469,332.66166175300896,None,,,,,,,,,,,,,,,5,26,f,2021_Apr_09_2041,ldt_en_hi,2021.1.3,1420.7181065252626,
,,,,,,,,,,,,बहस,blaokbonvd,left,10,,,,,,,,,,,,,0,16,16,45,,,,,,,,,,,,,,,,,None,335.003904851008,None,,,,,,,,,,,,,,,,,,,,,,,,,,,,,,,,334.03894893200777,None,334.03894893200777,None,left,1,0.9634892110043438,334.03894893200777,None,,,,,,,,,,,,,,,5,26,f,2021_Apr_09_2041,ldt_en_hi,2021.1.3,1420.7181065252626,
,,,,,,,,,,,,परावान,valuable,left,9,,,,,,,,,,,,,0,17,17,79,,,,,,,,,,,,,,,,,None,338.0857346420089,None,,,,,,,,,,,,,,,,,,,,,,,,,,,,,,,,335.50735781500407,None,335.50735781500407,None,left,1,2.576637190999463,335.50735781500407,None,,,,,,,,,,,,,,,5,26,f,2021_Apr_09_2041,ldt_en_hi,2021.1.3,1420.7181065252626,
,,,,,,,,,,,,वकी,averake,left,8,,,,,,,,,,,,,0,18,18,63,,,,,,,,,,,,,,,,,None,339.62419874200714,None,,,,,,,,,,,,,,,,,,,,,,,,,,,,,,,,338.58913471200503,None,338.58913471200503,None,left,1,1.033595469998545,338.58913471200503,None,,,,,,,,,,,,,,,5,26,f,2021_Apr_09_2041,ldt_en_hi,2021.1.3,1420.7181065252626,
,,,,,,,,,,,,सच,copy,right,7,,,,,,,,,,,,,0,19,19,25,,,,,,,,,,,,,,,,,None,341.02882547600893,None,,,,,,,,,,,,,,,,,,,,,,,,,,,,,,,,340.12764481701015,None,340.12764481701015,None,right,1,0.8996992220054381,340.12764481701015,None,,,,,,,,,,,,,,,5,26,f,2021_Apr_09_2041,ldt_en_hi,2021.1.3,1420.7181065252626,
,,,,,,,,,,,,गहा,chulk,left,8,,,,,,,,,,,,,0,20,20,56,,,,,,,,,,,,,,,,,None,342.6379473690031,None,,,,,,,,,,,,,,,,,,,,,,,,,,,,,,,,341.53262379900843,None,341.53262379900843,None,left,1,1.1038476550020278,341.53262379900843,None,,,,,,,,,,,,,,,5,26,f,2021_Apr_09_2041,ldt_en_hi,2021.1.3,1420.7181065252626,
,,,,,,,,,,,,जोकर,eyes,right,7,,,,,,,,,,,,,0,21,21,38,,,,,,,,,,,,,,,,,None,344.1084888990008,None,,,,,,,,,,,,,,,,,,,,,,,,,,,,,,,,343.1525294120074,None,343.1525294120074,None,right,1,0.9544522390060592,343.1525294120074,None,,,,,,,,,,,,,,,5,26,f,2021_Apr_09_2041,ldt_en_hi,2021.1.3,1420.7181065252626,
,,,,,,,,,,,,खेती,dollars,right,7,,,,,,,,,,,,,0,22,22,21,,,,,,,,,,,,,,,,,None,345.86790493200533,None,,,,,,,,,,,,,,,,,,,,,,,,,,,,,,,,344.62557014600316,None,344.62557014600316,None,right,1,1.2408664359973045,344.62557014600316,None,,,,,,,,,,,,,,,5,26,f,2021_Apr_09_2041,ldt_en_hi,2021.1.3,1420.7181065252626,
,,,,,,,,,,,,गायक,dancer,right,6,,,,,,,,,,,,,0,23,23,18,,,,,,,,,,,,,,,,,None,347.0748037130106,None,,,,,,,,,,,,,,,,,,,,,,,,,,,,,,,,346.37134283401247,None,346.37134283401247,None,right,1,0.7019784820004134,346.37134283401247,None,,,,,,,,,,,,,,,5,26,f,2021_Apr_09_2041,ldt_en_hi,2021.1.3,1420.7181065252626,
,,,,,,,,,,,,टराव,tumor,left,9,,,,,,,,,,,,,0,24,24,68,,,,,,,,,,,,,,,,,None,348.3590719190106,None,,,,,,,,,,,,,,,,,,,,,,,,,,,,,,,,347.5782763430034,None,347.5782763430034,None,left,1,0.7792968659923645,347.5782763430034,None,,,,,,,,,,,,,,,5,26,f,2021_Apr_09_2041,ldt_en_hi,2021.1.3,1420.7181065252626,
,,,,,,,,,,,,फूल,suggeyf,left,10,,,,,,,,,,,,,0,25,25,53,,,,,,,,,,,,,,,,,None,349.8745138400118,None,,,,,,,,,,,,,,,,,,,,,,,,,,,,,,,,348.8762783860002,None,348.8762783860002,None,left,1,0.9967673779901816,348.8762783860002,None,,,,,,,,,,,,,,,5,26,f,2021_Apr_09_2041,ldt_en_hi,2021.1.3,1420.7181065252626,
,,,,,,,,,,,,अनाज,breakfast,right,6,,,,,,,,,,,,,0,26,26,11,,,,,,,,,,,,,,,,,None,351.3735018180014,None,,,,,,,,,,,,,,,,,,,,,,,,,,,,,,,,350.3779033190076,None,350.3779033190076,None,right,1,0.994131521001691,350.3779033190076,None,,,,,,,,,,,,,,,5,26,f,2021_Apr_09_2041,ldt_en_hi,2021.1.3,1420.7181065252626,
,,,,,,,,,,,,पतल,dival,left,8,,,,,,,,,,,,,0,27,27,60,,,,,,,,,,,,,,,,,None,353.07253515699995,None,,,,,,,,,,,,,,,,,,,,,,,,,,,,,,,,351.8772941269999,None,351.8772941269999,None,left,1,1.1937238000100479,351.8772941269999,None,,,,,,,,,,,,,,,5,26,f,2021_Apr_09_2041,ldt_en_hi,2021.1.3,1420.7181065252626,
,,,,,,,,,,,,विमान,decision,right,7,,,,,,,,,,,,,0,28,28,31,,,,,,,,,,,,,,,,,None,356.02178494501277,None,,,,,,,,,,,,,,,,,,,,,,,,,,,,,,,,353.5758028570126,None,353.5758028570126,None,left,0,2.4445180109905777,353.5758028570126,None,,,,,,,,,,,,,,,5,26,f,2021_Apr_09_2041,ldt_en_hi,2021.1.3,1420.7181065252626,
,,,,,,,,,,,,शहनाई,decay,right,7,,,,,,,,,,,,,0,29,29,30,,,,,,,,,,,,,,,,,None,359.3825917380018,None,,,,,,,,,,,,,,,,,,,,,,,,,,,,,,,,356.5496410650085,None,356.5496410650085,None,right,1,2.831479811007739,356.5496410650085,None,,,,,,,,,,,,,,,5,26,f,2021_Apr_09_2041,ldt_en_hi,2021.1.3,1420.7181065252626,
,,,,,,,,,,,,केल,cauliflower,left,9,,,,,,,,,,,,,0,30,30,73,,,,,,,,,,,,,,,,,None,361.2601637010084,None,,,,,,,,,,,,,,,,,,,,,,,,,,,,,,,,359.886363521,None,359.886363521,None,left,1,1.372335641994141,359.886363521,None,,,,,,,,,,,,,,,5,26,f,2021_Apr_09_2041,ldt_en_hi,2021.1.3,1420.7181065252626,
,,,,,,,,,,,,आतंकवादी,bomb,right,6,,,,,,,,,,,,,0,31,31,7,,,,,,,,,,,,,,,,,None,362.63544397200167,None,,,,,,,,,,,,,,,,,,,,,,,,,,,,,,,,361.7806196990132,None,361.7806196990132,None,right,1,0.8533175909979036,361.7806196990132,None,,,,,,,,,,,,,,,5,26,f,2021_Apr_09_2041,ldt_en_hi,2021.1.3,1420.7181065252626,
,,,,,,,,,,,,घर,blow,right,7,,,,,,,,,,,,,0,32,32,28,,,,,,,,,,,,,,,,,None,364.11347273600404,None,,,,,,,,,,,,,,,,,,,,,,,,,,,,,,,,363.14937213600206,None,363.14937213600206,None,right,1,0.9626393950020429,363.14937213600206,None,,,,,,,,,,,,,,,5,26,f,2021_Apr_09_2041,ldt_en_hi,2021.1.3,1420.7181065252626,
,,,,,,,,,,,,केल,fgor,left,8,,,,,,,,,,,,,0,33,33,64,,,,,,,,,,,,,,,,,None,365.39204780600267,None,,,,,,,,,,,,,,,,,,,,,,,,,,,,,,,,364.6169260960014,None,364.6169260960014,None,left,1,0.7736600329953944,364.6169260960014,None,,,,,,,,,,,,,,,5,26,f,2021_Apr_09_2041,ldt_en_hi,2021.1.3,1420.7181065252626,
,,,,,,,,,,,,जापान,china,right,6,,,,,,,,,,,,,0,34,34,14,,,,,,,,,,,,,,,,,None,366.83645599101146,None,,,,,,,,,,,,,,,,,,,,,,,,,,,,,,,,365.89586995600257,None,365.89586995600257,None,right,1,0.9388703330041608,365.89586995600257,None,,,,,,,,,,,,,,,5,26,f,2021_Apr_09_2041,ldt_en_hi,2021.1.3,1420.7181065252626,
,,,,,,,,,,,,बाइन,atnton,left,8,,,,,,,,,,,,,0,35,35,61,,,,,,,,,,,,,,,,,None,368.02033852601016,None,,,,,,,,,,,,,,,,,,,,,,,,,,,,,,,,367.3512730770017,None,367.3512730770017,None,left,1,0.6674475460022222,367.3512730770017,None,,,,,,,,,,,,,,,5,26,f,2021_Apr_09_2041,ldt_en_hi,2021.1.3,1420.7181065252626,
,,,,,,,,,,,,मदान,gway,left,8,,,,,,,,,,,,,0,36,36,57,,,,,,,,,,,,,,,,,None,369.43339937200653,None,,,,,,,,,,,,,,,,,,,,,,,,,,,,,,,,368.52428597300604,None,368.52428597300604,None,left,1,0.907572711003013,368.52428597300604,None,,,,,,,,,,,,,,,5,26,f,2021_Apr_09_2041,ldt_en_hi,2021.1.3,1420.7181065252626,
,,,,,,,,,,,,नेता,area,right,7,,,,,,,,,,,,,0,37,37,32,,,,,,,,,,,,,,,,,None,370.68278977900627,None,,,,,,,,,,,,,,,,,,,,,,,,,,,,,,,,369.937299230005,None,369.937299230005,None,left,0,0.7440108430018881,369.937299230005,None,,,,,,,,,,,,,,,5,26,f,2021_Apr_09_2041,ldt_en_hi,2021.1.3,1420.7181065252626,
,,,,,,,,,,,,जगल,policeman,left,9,,,,,,,,,,,,,0,38,38,77,,,,,,,,,,,,,,,,,None,372.714565901013,None,,,,,,,,,,,,,,,,,,,,,,,,,,,,,,,,371.1866321760026,None,371.1866321760026,None,left,1,1.5262041259993566,371.1866321760026,None,,,,,,,,,,,,,,,5,26,f,2021_Apr_09_2041,ldt_en_hi,2021.1.3,1420.7181065252626,
,,,,,,,,,,,,सावधान,capmpiwity,left,10,,,,,,,,,,,,,0,39,39,50,,,,,,,,,,,,,,,,,None,374.60910110000987,None,,,,,,,,,,,,,,,,,,,,,,,,,,,,,,,,373.2184239660128,None,373.2184239660128,None,left,1,1.3891933400009293,373.2184239660128,None,,,,,,,,,,,,,,,5,26,f,2021_Apr_09_2041,ldt_en_hi,2021.1.3,1420.7181065252626,
,,,,,,,,,,,,महंगा,cheap,right,6,,,,,,,,,,,,,0,40,40,13,,,,,,,,,,,,,,,,,None,376.2988400130125,None,,,,,,,,,,,,,,,,,,,,,,,,,,,,,,,,375.11227906501153,None,375.11227906501153,None,right,1,1.185085457007517,375.11227906501153,None,,,,,,,,,,,,,,,5,26,f,2021_Apr_09_2041,ldt_en_hi,2021.1.3,1420.7181065252626,
,,,,,,,,,,,,संट,subtraction,left,9,,,,,,,,,,,,,0,41,41,67,,,,,,,,,,,,,,,,,None,377.5443511360063,None,,,,,,,,,,,,,,,,,,,,,,,,,,,,,,,,376.80251391400816,None,376.80251391400816,None,left,1,0.7403511159936897,376.80251391400816,None,,,,,,,,,,,,,,,5,26,f,2021_Apr_09_2041,ldt_en_hi,2021.1.3,1420.7181065252626,
,,,,,,,,,,,,मेंढक,doe,right,7,,,,,,,,,,,,,0,42,42,36,,,,,,,,,,,,,,,,,None,379.2233539940062,None,,,,,,,,,,,,,,,,,,,,,,,,,,,,,,,,378.0480480190017,None,378.0480480190017,None,right,1,1.1737964630010538,378.0480480190017,None,,,,,,,,,,,,,,,5,26,f,2021_Apr_09_2041,ldt_en_hi,2021.1.3,1420.7181065252626,
,,,,,,,,,,,,सावधान,caklqblower,left,10,,,,,,,,,,,,,0,43,43,44,,,,,,,,,,,,,,,,,None,380.71609782900487,None,,,,,,,,,,,,,,,,,,,,,,,,,,,,,,,,379.72709496000607,None,379.72709496000607,None,left,1,0.9875137230119435,379.72709496000607,None,,,,,,,,,,,,,,,5,26,f,2021_Apr_09_2041,ldt_en_hi,2021.1.3,1420.7181065252626,
,,,,,,,,,,,,हानि,deaf,right,7,,,,,,,,,,,,,0,44,44,39,,,,,,,,,,,,,,,,,None,382.61449535800784,None,,,,,,,,,,,,,,,,,,,,,,,,,,,,,,,,381.2199100010039,None,381.2199100010039,None,left,0,1.3930759119975846,381.2199100010039,None,,,,,,,,,,,,,,,5,26,f,2021_Apr_09_2041,ldt_en_hi,2021.1.3,1420.7181065252626,
,,,,,,,,,,,,सिपाही,empty,right,7,,,,,,,,,,,,,0,45,45,27,,,,,,,,,,,,,,,,,None,384.7609038750088,None,,,,,,,,,,,,,,,,,,,,,,,,,,,,,,,,383.1182188140083,None,383.1182188140083,None,left,0,1.6412182960048085,383.1182188140083,None,,,,,,,,,,,,,,,5,26,f,2021_Apr_09_2041,ldt_en_hi,2021.1.3,1420.7181065252626,
,,,,,,,,,,,,सलाह,mabapine,left,10,,,,,,,,,,,,,0,46,46,42,,,,,,,,,,,,,,,,,None,386.4023632560129,None,,,,,,,,,,,,,,,,,,,,,,,,,,,,,,,,385.2648180200049,None,385.2648180200049,None,left,1,1.135805693003931,385.2648180200049,None,,,,,,,,,,,,,,,5,26,f,2021_Apr_09_2041,ldt_en_hi,2021.1.3,1420.7181065252626,
,,,,,,,,,,,,अजमदा,tricycle,left,9,,,,,,,,,,,,,0,47,47,72,,,,,,,,,,,,,,,,,None,388.5655460500129,None,,,,,,,,,,,,,,,,,,,,,,,,,,,,,,,,386.90589725700556,None,386.90589725700556,None,left,1,1.6581428770005004,386.90589725700556,None,,,,,,,,,,,,,,,5,26,f,2021_Apr_09_2041,ldt_en_hi,2021.1.3,1420.7181065252626,
,,,,,,,,,,,,यूोप,mustache,left,9,,,,,,,,,,,,,0,48,48,71,,,,,,,,,,,,,,,,,None,390.7197939980106,None,,,,,,,,,,,,,,,,,,,,,,,,,,,,,,,,389.06885090100695,None,389.06885090100695,None,left,1,1.6494537340040551,389.06885090100695,None,,,,,,,,,,,,,,,5,26,f,2021_Apr_09_2041,ldt_en_hi,2021.1.3,1420.7181065252626,
,,,,,,,,,,,,लड़की,baby,right,6,,,,,,,,,,,,,0,49,49,3,,,,,,,,,,,,,,,,,None,392.50887705500645,None,,,,,,,,,,,,,,,,,,,,,,,,,,,,,,,,391.2236441060086,None,391.2236441060086,None,right,1,1.2837415450048866,391.2236441060086,None,,,,,,,,,,,,,,,5,26,f,2021_Apr_09_2041,ldt_en_hi,2021.1.3,1420.7181065252626,
,,,,,,,,,,,,भगवान,temple,right,6,,,,,,,,,,,,,0,50,50,15,,,,,,,,,,,,,,,,,None,393.881764870006,None,,,,,,,,,,,,,,,,,,,,,,,,,,,,,,,,393.012045993004,None,393.012045993004,None,right,1,0.8682245829986641,393.012045993004,None,,,,,,,,,,,,,,,5,26,f,2021_Apr_09_2041,ldt_en_hi,2021.1.3,1420.7181065252626,
,,,,,,,,,,,,गुफा,perigrm,left,10,,,,,,,,,,,,,0,51,51,51,,,,,,,,,,,,,,,,,None,395.3809304190072,None,,,,,,,,,,,,,,,,,,,,,,,,,,,,,,,,394.385852833002,None,394.385852833002,None,left,1,0.9935276210017037,394.385852833002,None,,,,,,,,,,,,,,,5,26,f,2021_Apr_09_2041,ldt_en_hi,2021.1.3,1420.7181065252626,
,,,,,,,,,,,,गाय,valuabzr,left,10,,,,,,,,,,,,,0,52,52,48,,,,,,,,,,,,,,,,,None,396.79951127000095,None,,,,,,,,,,,,,,,,,,,,,,,,,,,,,,,,395.8846942480013,None,395.8846942480013,None,left,1,0.9133355540107004,395.8846942480013,None,,,,,,,,,,,,,,,5,26,f,2021_Apr_09_2041,ldt_en_hi,2021.1.3,1420.7181065252626,
,,,,,,,,,,,,पैसे,cash,right,6,,,,,,,,,,,,,0,53,53,12,,,,,,,,,,,,,,,,,None,398.12116244800563,None,,,,,,,,,,,,,,,,,,,,,,,,,,,,,,,,397.30305727200175,None,397.30305727200175,None,right,1,0.8166136999934679,397.30305727200175,None,,,,,,,,,,,,,,,5,26,f,2021_Apr_09_2041,ldt_en_hi,2021.1.3,1420.7181065252626,
,,,,,,,,,,,,खोज,expensive,right,7,,,,,,,,,,,,,0,54,54,29,,,,,,,,,,,,,,,,,None,399.7323014450085,None,,,,,,,,,,,,,,,,,,,,,,,,,,,,,,,,398.6252370560105,None,398.6252370560105,None,right,1,1.1055715620022966,398.6252370560105,None,,,,,,,,,,,,,,,5,26,f,2021_Apr_09_2041,ldt_en_hi,2021.1.3,1420.7181065252626,
,,,,,,,,,,,,मछली,ucter,left,10,,,,,,,,,,,,,0,55,55,52,,,,,,,,,,,,,,,,,None,401.16131544401287,None,,,,,,,,,,,,,,,,,,,,,,,,,,,,,,,,400.2490197610023,None,400.2490197610023,None,left,1,0.9107919009984471,400.2490197610023,None,,,,,,,,,,,,,,,5,26,f,2021_Apr_09_2041,ldt_en_hi,2021.1.3,1420.7181065252626,
,,,,,,,,,,,,शेर,lion,right,6,,,,,,,,,,,,,0,56,56,1,,,,,,,,,,,,,,,,,None,402.5582954180136,None,,,,,,,,,,,,,,,,,,,,,,,,,,,,,,,,401.6647389800055,None,401.6647389800055,None,right,1,0.8920697250141529,401.6647389800055,None,,,,,,,,,,,,,,,5,26,f,2021_Apr_09_2041,ldt_en_hi,2021.1.3,1420.7181065252626,
,,,,,,,,,,,,संट,kitchen,left,9,,,,,,,,,,,,,0,57,57,76,,,,,,,,,,,,,,,,,None,404.02507542700914,None,,,,,,,,,,,,,,,,,,,,,,,,,,,,,,,,403.0615431890037,None,403.0615431890037,None,left,1,0.9620509139931528,403.0615431890037,None,,,,,,,,,,,,,,,5,26,f,2021_Apr_09_2041,ldt_en_hi,2021.1.3,1420.7181065252626,
,,,,,,,,,,,,नल,ltbster,left,10,,,,,,,,,,,,,0,58,58,47,,,,,,,,,,,,,,,,,None,405.4773633200093,None,,,,,,,,,,,,,,,,,,,,,,,,,,,,,,,,404.52891495601216,None,404.52891495601216,None,left,1,0.9467056129942648,404.52891495601216,None,,,,,,,,,,,,,,,5,26,f,2021_Apr_09_2041,ldt_en_hi,2021.1.3,1420.7181065252626,
,,,,,,,,,,,,टराव,lobster,left,9,,,,,,,,,,,,,0,59,59,78,,,,,,,,,,,,,,,,,None,406.97627581200504,None,,,,,,,,,,,,,,,,,,,,,,,,,,,,,,,,405.98056381801143,None,405.98056381801143,None,left,1,0.9941366610000841,405.98056381801143,None,,,,,,,,,,,,,,,5,26,f,2021_Apr_09_2041,ldt_en_hi,2021.1.3,1420.7181065252626,
,,,,,,,,,,,,कंबल,poldcemps,left,10,,,,,,,,,,,,,0,60,60,46,,,,,,,,,,,,,,,,,None,408.9592149020027,None,,,,,,,,,,,,,,,,,,,,,,,,,,,,,,,,407.4800369010045,None,407.4800369010045,None,left,1,1.4776811899937456,407.4800369010045,None,,,,,,,,,,,,,,,5,26,f,2021_Apr_09_2041,ldt_en_hi,2021.1.3,1420.7181065252626,
,,,,,,,,,,,,परावान,octopus,left,9,,,,,,,,,,,,,0,61,61,69,,,,,,,,,,,,,,,,,None,411.94795655801136,None,,,,,,,,,,,,,,,,,,,,,,,,,,,,,,,,409.46286109600624,None,409.46286109600624,None,left,1,2.4835863260086626,409.46286109600624,None,,,,,,,,,,,,,,,5,26,f,2021_Apr_09_2041,ldt_en_hi,2021.1.3,1420.7181065252626,
,,,,,,,,,,,,असमल,rug,left,9,,,,,,,,,,,,,0,62,62,74,,,,,,,,,,,,,,,,,None,414.1839310630021,None,,,,,,,,,,,,,,,,,,,,,,,,,,,,,,,,412.4516718540108,None,412.4516718540108,None,left,1,1.7307722249970539,412.4516718540108,None,,,,,,,,,,,,,,,5,26,f,2021_Apr_09_2041,ldt_en_hi,2021.1.3,1420.7181065252626,
,,,,,,,,,,,,गाजर,dasewn,left,10,,,,,,,,,,,,,0,63,63,49,,,,,,,,,,,,,,,,,None,415.9868401840067,None,,,,,,,,,,,,,,,,,,,,,,,,,,,,,,,,414.68743686701055,None,414.68743686701055,None,left,1,1.2979052500013495,414.68743686701055,None,,,,,,,,,,,,,,,5,26,f,2021_Apr_09_2041,ldt_en_hi,2021.1.3,1420.7181065252626,
,,,,,,,,,,,,अपरा,blackboard,left,9,,,,,,,,,,,,,0,64,64,75,,,,,,,,,,,,,,,,,None,417.61997015400266,None,,,,,,,,,,,,,,,,,,,,,,,,,,,,,,,,416.4900403030042,None,416.4900403030042,None,left,1,1.1284448169899406,416.4900403030042,None,,,,,,,,,,,,,,,5,26,f,2021_Apr_09_2041,ldt_en_hi,2021.1.3,1420.7181065252626,
,,,,,,,,,,,,भीड़,crowd,right,6,,,,,,,,,,,,,0,65,65,17,,,,,,,,,,,,,,,,,None,418.96227423500386,None,,,,,,,,,,,,,,,,,,,,,,,,,,,,,,,,418.12331087500206,None,418.12331087500206,None,right,1,0.8374944259994663,418.12331087500206,None,,,,,,,,,,,,,,,5,26,f,2021_Apr_09_2041,ldt_en_hi,2021.1.3,1420.7181065252626,
,,,,,,,,,,,,मगरम,bow,left,9,,,,,,,,,,,,,0,66,66,70,,,,,,,,,,,,,,,,,None,420.6749481970037,None,,,,,,,,,,,,,,,,,,,,,,,,,,,,,,,,419.46605031100626,None,419.46605031100626,None,left,1,1.2073839460063027,419.46605031100626,None,,,,,,,,,,,,,,,5,26,f,2021_Apr_09_2041,ldt_en_hi,2021.1.3,1420.7181065252626,
,,,,,,,,,,,,यूोप,builde,left,8,,,,,,,,,,,,,0,67,67,55,,,,,,,,,,,,,,,,,None,422.1319722770131,None,,,,,,,,,,,,,,,,,,,,,,,,,,,,,,,,421.1783196590113,None,421.1783196590113,None,left,1,0.9521448540035635,421.1783196590113,None,,,,,,,,,,,,,,,5,26,f,2021_Apr_09_2041,ldt_en_hi,2021.1.3,1420.7181065252626,
,,,,,,,,,,,,रात,day,right,6,,,,,,,,,,,,,0,68,68,19,,,,,,,,,,,,,,,,,None,423.3931493750133,None,,,,,,,,,,,,,,,,,,,,,,,,,,,,,,,,422.635561195013,None,422.635561195013,None,right,1,0.7560981639981037,422.635561195013,None,,,,,,,,,,,,,,,5,26,f,2021_Apr_09_2041,ldt_en_hi,2021.1.3,1420.7181065252626,
,,,,,,,,,,,,गेंद,bat,right,6,,,,,,,,,,,,,0,69,69,4,,,,,,,,,,,,,,,,,None,425.20655772100145,None,,,,,,,,,,,,,,,,,,,,,,,,,,,,,,,,423.8965727830073,None,423.8965727830073,None,right,1,1.3085320350073744,423.8965727830073,None,,,,,,,,,,,,,,,5,26,f,2021_Apr_09_2041,ldt_en_hi,2021.1.3,1420.7181065252626,
,,,,,,,,,,,,सुंदरता,beast,right,6,,,,,,,,,,,,,0,70,70,5,,,,,,,,,,,,,,,,,None,426.7514904020063,None,,,,,,,,,,,,,,,,,,,,,,,,,,,,,,,,425.7096478900057,None,425.7096478900057,None,right,1,1.040443713995046,425.7096478900057,None,,,,,,,,,,,,,,,5,26,f,2021_Apr_09_2041,ldt_en_hi,2021.1.3,1420.7181065252626,
,,,,,,,,,,,,अभिनय,calm,right,7,,,,,,,,,,,,,0,71,71,35,,,,,,,,,,,,,,,,,None,428.28146689101413,None,,,,,,,,,,,,,,,,,,,,,,,,,,,,,,,,427.2547736770066,None,427.2547736770066,None,right,1,1.0248564570065355,427.2547736770066,None,,,,,,,,,,,,,,,5,26,f,2021_Apr_09_2041,ldt_en_hi,2021.1.3,1420.7181065252626,
,,,,,,,,,,,,तीर,bow,right,6,,,,,,,,,,,,,0,72,72,8,,,,,,,,,,,,,,,,,None,429.41404019400943,None,,,,,,,,,,,,,,,,,,,,,,,,,,,,,,,,428.78492783600814,None,428.78492783600814,None,right,1,0.6276975560031133,428.78492783600814,None,,,,,,,,,,,,,,,5,26,f,2021_Apr_09_2041,ldt_en_hi,2021.1.3,1420.7181065252626,
,,,,,,,,,,,,लड़की,boy,right,6,,,,,,,,,,,,,0,73,73,10,,,,,,,,,,,,,,,,,None,430.5554308890132,None,,,,,,,,,,,,,,,,,,,,,,,,,,,,,,,,429.917476764007,None,429.917476764007,None,right,1,0.636431334001827,429.917476764007,None,,,,,,,,,,,,,,,5,26,f,2021_Apr_09_2041,ldt_en_hi,2021.1.3,1420.7181065252626,
,,,,,,,,,,,,नक,bnat,left,8,,,,,,,,,,,,,0,74,74,65,,,,,,,,,,,,,,,,,None,431.8921699210041,None,,,,,,,,,,,,,,,,,,,,,,,,,,,,,,,,431.0584526590101,None,431.0584526590101,None,left,1,0.8322824589995435,431.0584526590101,None,,,,,,,,,,,,,,,5,26,f,2021_Apr_09_2041,ldt_en_hi,2021.1.3,1420.7181065252626,
,,,,,,,,,,,,नाजु,ceok,left,8,,,,,,,,,,,,,0,75,75,58,,,,,,,,,,,,,,,,,None,433.4756357110018,None,,,,,,,,,,,,,,,,,,,,,,,,,,,,,,,,432.39569978401414,None,432.39569978401414,None,right,0,1.0784989160019904,432.39569978401414,None,,,,,,,,,,,,,,,5,26,f,2021_Apr_09_2041,ldt_en_hi,2021.1.3,1420.7181065252626,
,,,,,,,,,,,,आतंक,average,right,7,,,,,,,,,,,,,0,76,76,23,,,,,,,,,,,,,,,,,None,439.1979108400119,None,,,,,,,,,,,,,,,,,,,,,,,,,,,,,,,,433.97871974100417,None,433.97871974100417,None,right,1,5.217578632000368,433.97871974100417,None,,,,,,,,,,,,,,,5,26,f,2021_Apr_09_2041,ldt_en_hi,2021.1.3,1420.7181065252626,
,,,,,,,,,,,,गाड़ी,auto,right,6,,,,,,,,,,,,,0,77,77,2,,,,,,,,,,,,,,,,,None,440.58411931800947,None,,,,,,,,,,,,,,,,,,,,,,,,,,,,,,,,439.7016382400034,None,439.7016382400034,None,right,1,0.8809317609993741,439.7016382400034,None,,,,,,,,,,,,,,,5,26,f,2021_Apr_09_2041,ldt_en_hi,2021.1.3,1420.7181065252626,
,,,,,,,,,,,,कोमल,cure,right,7,,,,,,,,,,,,,0,78,78,34,,,,,,,,,,,,,,,,,None,442.0998386830033,None,,,,,,,,,,,,,,,,,,,,,,,,,,,,,,,,441.0880838530138,None,441.0880838530138,None,right,1,1.0100632200046675,441.0880838530138,None,,,,,,,,,,,,,,,5,26,f,2021_Apr_09_2041,ldt_en_hi,2021.1.3,1420.7181065252626,
,,,,,,,,,,,,काम,imhge,left,10,,,,,,,,,,,,,0,79,79,40,,,,,,,,,,,,,,,,,None,443.510372181001,None,,,,,,,,,,,,,,,,,,,,,,,,,,,,,,,,442.60414732700156,None,442.60414732700156,None,left,1,0.9046505320002325,442.60414732700156,None,,,,,,,,,,,,,,,5,26,f,2021_Apr_09_2041,ldt_en_hi,2021.1.3,1420.7181065252626,
,,,,,,,,,,,,केल,fgor,left,8,,,,,,,,,,,,,1,0,80,64,,,,,,,,,,,,,,,,,None,444.7969771460048,None,,,,,,,,,,,,,,,,,,,,,,,,,,,,,,,,444.01407363700855,None,444.01407363700855,None,left,1,0.7813184749975335,444.01407363700855,None,,,,,,,,,,,,,,,5,26,f,2021_Apr_09_2041,ldt_en_hi,2021.1.3,1420.7181065252626,
,,,,,,,,,,,,अभिनय,disbhvmeve,left,10,,,,,,,,,,,,,1,1,81,41,,,,,,,,,,,,,,,,,None,446.2867804960115,None,,,,,,,,,,,,,,,,,,,,,,,,,,,,,,,,445.3011593110132,None,445.3011593110132,None,left,1,0.9840297990012914,445.3011593110132,None,,,,,,,,,,,,,,,5,26,f,2021_Apr_09_2041,ldt_en_hi,2021.1.3,1420.7181065252626,
,,,,,,,,,,,,शेर,lion,right,6,,,,,,,,,,,,,1,2,82,1,,,,,,,,,,,,,,,,,None,447.5944226230058,None,,,,,,,,,,,,,,,,,,,,,,,,,,,,,,,,446.7911196720088,None,446.7911196720088,None,right,1,0.8017730769934133,446.7911196720088,None,,,,,,,,,,,,,,,5,26,f,2021_Apr_09_2041,ldt_en_hi,2021.1.3,1420.7181065252626,
,,,,,,,,,,,,सिपाही,empty,right,7,,,,,,,,,,,,,1,3,83,27,,,,,,,,,,,,,,,,,None,451.4957457080018,None,,,,,,,,,,,,,,,,,,,,,,,,,,,,,,,,448.09836463800457,None,448.09836463800457,None,left,0,3.39580020098947,448.09836463800457,None,,,,,,,,,,,,,,,5,26,f,2021_Apr_09_2041,ldt_en_hi,2021.1.3,1420.7181065252626,
,,,,,,,,,,,,परावान,octopus,left,9,,,,,,,,,,,,,1,4,84,69,,,,,,,,,,,,,,,,,None,453.7549388560001,None,,,,,,,,,,,,,,,,,,,,,,,,,,,,,,,,451.99944388600125,None,451.99944388600125,None,left,1,1.7538991469918983,451.99944388600125,None,,,,,,,,,,,,,,,5,26,f,2021_Apr_09_2041,ldt_en_hi,2021.1.3,1420.7181065252626,
,,,,,,,,,,,,गहा,chulk,left,8,,,,,,,,,,,,,1,5,85,56,,,,,,,,,,,,,,,,,None,455.0541739800101,None,,,,,,,,,,,,,,,,,,,,,,,,,,,,,,,,454.25865578900266,None,454.25865578900266,None,left,1,0.7939201160043012,454.25865578900266,None,,,,,,,,,,,,,,,5,26,f,2021_Apr_09_2041,ldt_en_hi,2021.1.3,1420.7181065252626,
,,,,,,,,,,,,मगरम,hodker,left,8,,,,,,,,,,,,,1,6,86,54,,,,,,,,,,,,,,,,,None,456.43596082300064,None,,,,,,,,,,,,,,,,,,,,,,,,,,,,,,,,455.5580546310084,None,455.5580546310084,None,left,1,0.8763518439955078,455.5580546310084,None,,,,,,,,,,,,,,,5,26,f,2021_Apr_09_2041,ldt_en_hi,2021.1.3,1420.7181065252626,
,,,,,,,,,,,,संट,kitchen,left,9,,,,,,,,,,,,,1,7,87,76,,,,,,,,,,,,,,,,,None,457.8800083150127,None,,,,,,,,,,,,,,,,,,,,,,,,,,,,,,,,456.940023742005,None,456.940023742005,None,left,1,0.9383883560076356,456.940023742005,None,,,,,,,,,,,,,,,5,26,f,2021_Apr_09_2041,ldt_en_hi,2021.1.3,1420.7181065252626,
,,,,,,,,,,,,भगवान,temple,right,6,,,,,,,,,,,,,1,8,88,15,,,,,,,,,,,,,,,,,None,459.1893151050026,None,,,,,,,,,,,,,,,,,,,,,,,,,,,,,,,,458.3835288130067,None,458.3835288130067,None,right,1,0.8042431870126165,458.3835288130067,None,,,,,,,,,,,,,,,5,26,f,2021_Apr_09_2041,ldt_en_hi,2021.1.3,1420.7181065252626,
,,,,,,,,,,,,अजमदा,uttac,left,8,,,,,,,,,,,,,1,9,89,62,,,,,,,,,,,,,,,,,None,460.3752596130071,None,,,,,,,,,,,,,,,,,,,,,,,,,,,,,,,,459.69358066700806,None,459.69358066700806,None,left,1,0.6800849449937232,459.69358066700806,None,,,,,,,,,,,,,,,5,26,f,2021_Apr_09_2041,ldt_en_hi,2021.1.3,1420.7181065252626,
,,,,,,,,,,,,पतल,dival,left,8,,,,,,,,,,,,,1,10,90,60,,,,,,,,,,,,,,,,,None,462.0617608610046,None,,,,,,,,,,,,,,,,,,,,,,,,,,,,,,,,460.8790869330114,None,460.8790869330114,None,left,1,1.1808989270066377,460.8790869330114,None,,,,,,,,,,,,,,,5,26,f,2021_Apr_09_2041,ldt_en_hi,2021.1.3,1420.7181065252626,
,,,,,,,,,,,,मगरम,bow,left,9,,,,,,,,,,,,,1,11,91,70,,,,,,,,,,,,,,,,,None,463.2346988870122,None,,,,,,,,,,,,,,,,,,,,,,,,,,,,,,,,462.5655290930008,None,462.5655290930008,None,left,1,0.6675830680032959,462.5655290930008,None,,,,,,,,,,,,,,,5,26,f,2021_Apr_09_2041,ldt_en_hi,2021.1.3,1420.7181065252626,
,,,,,,,,,,,,हानि,deaf,right,7,,,,,,,,,,,,,1,12,92,39,,,,,,,,,,,,,,,,,None,464.4999657210137,None,,,,,,,,,,,,,,,,,,,,,,,,,,,,,,,,463.7390535540035,None,463.7390535540035,None,left,0,0.7593468400009442,463.7390535540035,None,,,,,,,,,,,,,,,5,26,f,2021_Apr_09_2041,ldt_en_hi,2021.1.3,1420.7181065252626,
,,,,,,,,,,,,जोकर,eyes,right,7,,,,,,,,,,,,,1,13,93,38,,,,,,,,,,,,,,,,,None,468.2186532920023,None,,,,,,,,,,,,,,,,,,,,,,,,,,,,,,,,465.0036956170079,None,465.0036956170079,None,right,1,3.2134138619876467,465.0036956170079,None,,,,,,,,,,,,,,,5,26,f,2021_Apr_09_2041,ldt_en_hi,2021.1.3,1420.7181065252626,
,,,,,,,,,,,,परावान,valuable,left,9,,,,,,,,,,,,,1,14,94,79,,,,,,,,,,,,,,,,,None,469.5296955250087,None,,,,,,,,,,,,,,,,,,,,,,,,,,,,,,,,468.72273629601113,None,468.72273629601113,None,left,1,0.8053757879970362,468.72273629601113,None,,,,,,,,,,,,,,,5,26,f,2021_Apr_09_2041,ldt_en_hi,2021.1.3,1420.7181065252626,
,,,,,,,,,,,,यूोप,mustache,left,9,,,,,,,,,,,,,1,15,95,71,,,,,,,,,,,,,,,,,None,470.80428524001036,None,,,,,,,,,,,,,,,,,,,,,,,,,,,,,,,,470.0334097490122,None,470.0334097490122,None,left,1,0.7692954170051962,470.0334097490122,None,,,,,,,,,,,,,,,5,26,f,2021_Apr_09_2041,ldt_en_hi,2021.1.3,1420.7181065252626,
,,,,,,,,,,,,काम,imhge,left,10,,,,,,,,,,,,,1,16,96,40,,,,,,,,,,,,,,,,,None,472.2549382210127,None,,,,,,,,,,,,,,,,,,,,,,,,,,,,,,,,471.3079787530005,None,471.3079787530005,None,left,1,0.9454247530084103,471.3079787530005,None,,,,,,,,,,,,,,,5,26,f,2021_Apr_09_2041,ldt_en_hi,2021.1.3,1420.7181065252626,
,,,,,,,,,,,,केला,diary,right,7,,,,,,,,,,,,,1,17,97,37,,,,,,,,,,,,,,,,,None,473.6291502400127,None,,,,,,,,,,,,,,,,,,,,,,,,,,,,,,,,472.7586373100057,None,472.7586373100057,None,right,1,0.869006150009227,472.7586373100057,None,,,,,,,,,,,,,,,5,26,f,2021_Apr_09_2041,ldt_en_hi,2021.1.3,1420.7181065252626,
,,,,,,,,,,,,यूोप,builde,left,8,,,,,,,,,,,,,1,18,98,55,,,,,,,,,,,,,,,,,None,474.9503949100035,None,,,,,,,,,,,,,,,,,,,,,,,,,,,,,,,,474.1333420780138,None,474.1333420780138,None,left,1,0.8153690329927485,474.1333420780138,None,,,,,,,,,,,,,,,5,26,f,2021_Apr_09_2041,ldt_en_hi,2021.1.3,1420.7181065252626,
,,,,,,,,,,,,आतंक,average,right,7,,,,,,,,,,,,,1,19,99,23,,,,,,,,,,,,,,,,,None,476.5710051450005,None,,,,,,,,,,,,,,,,,,,,,,,,,,,,,,,,475.4544542710064,None,475.4544542710064,None,right,1,1.1148867240117397,475.4544542710064,None,,,,,,,,,,,,,,,5,26,f,2021_Apr_09_2041,ldt_en_hi,2021.1.3,1420.7181065252626,
,,,,,,,,,,,,गाड़ी,auto,right,6,,,,,,,,,,,,,1,20,100,2,,,,,,,,,,,,,,,,,None,477.85652958801074,None,,,,,,,,,,,,,,,,,,,,,,,,,,,,,,,,477.07487045400194,None,477.07487045400194,None,right,1,0.7801527430128772,477.07487045400194,None,,,,,,,,,,,,,,,5,26,f,2021_Apr_09_2041,ldt_en_hi,2021.1.3,1420.7181065252626,
,,,,,,,,,,,,टराव,lobster,left,9,,,,,,,,,,,,,1,21,101,78,,,,,,,,,,,,,,,,,None,479.0757210610027,None,,,,,,,,,,,,,,,,,,,,,,,,,,,,,,,,478.36053273800644,None,478.36053273800644,None,left,1,0.713689534997684,478.36053273800644,None,,,,,,,,,,,,,,,5,26,f,2021_Apr_09_2041,ldt_en_hi,2021.1.3,1420.7181065252626,
,,,,,,,,,,,,अपरा,blackboard,left,9,,,,,,,,,,,,,1,22,102,75,,,,,,,,,,,,,,,,,None,480.64703218500654,None,,,,,,,,,,,,,,,,,,,,,,,,,,,,,,,,479.5795291710092,None,479.5795291710092,None,left,1,1.065864402000443,479.5795291710092,None,,,,,,,,,,,,,,,5,26,f,2021_Apr_09_2041,ldt_en_hi,2021.1.3,1420.7181065252626,
,,,,,,,,,,,,रात,day,right,6,,,,,,,,,,,,,1,23,103,19,,,,,,,,,,,,,,,,,None,481.86036942301143,None,,,,,,,,,,,,,,,,,,,,,,,,,,,,,,,,481.1508170700108,None,481.1508170700108,None,right,1,0.7080436990072485,481.1508170700108,None,,,,,,,,,,,,,,,5,26,f,2021_Apr_09_2041,ldt_en_hi,2021.1.3,1420.7181065252626,
,,,,,,,,,,,,गाय,valuabzr,left,10,,,,,,,,,,,,,1,24,104,48,,,,,,,,,,,,,,,,,None,483.1408575860114,None,,,,,,,,,,,,,,,,,,,,,,,,,,,,,,,,482.3639378880034,None,482.3639378880034,None,left,1,0.7754177500028163,482.3639378880034,None,,,,,,,,,,,,,,,5,26,f,2021_Apr_09_2041,ldt_en_hi,2021.1.3,1420.7181065252626,
,,,,,,,,,,,,सावधान,caklqblower,left,10,,,,,,,,,,,,,1,25,105,44,,,,,,,,,,,,,,,,,None,484.6903753760125,None,,,,,,,,,,,,,,,,,,,,,,,,,,,,,,,,483.6448541710124,None,483.6448541710124,None,left,1,1.0439916200120933,483.6448541710124,None,,,,,,,,,,,,,,,5,26,f,2021_Apr_09_2041,ldt_en_hi,2021.1.3,1420.7181065252626,
,,,,,,,,,,,,विमान,decision,right,7,,,,,,,,,,,,,1,26,106,31,,,,,,,,,,,,,,,,,None,487.0682332060096,None,,,,,,,,,,,,,,,,,,,,,,,,,,,,,,,,485.1939103950135,None,485.1939103950135,None,left,0,1.8727969780011335,485.1939103950135,None,,,,,,,,,,,,,,,5,26,f,2021_Apr_09_2041,ldt_en_hi,2021.1.3,1420.7181065252626,
,,,,,,,,,,,,संट,subtraction,left,9,,,,,,,,,,,,,1,27,107,67,,,,,,,,,,,,,,,,,None,490.627006988012,None,,,,,,,,,,,,,,,,,,,,,,,,,,,,,,,,487.5722821250092,None,487.5722821250092,None,left,1,3.052903472998878,487.5722821250092,None,,,,,,,,,,,,,,,5,26,f,2021_Apr_09_2041,ldt_en_hi,2021.1.3,1420.7181065252626,
,,,,,,,,,,,,सावधान,capmpiwity,left,10,,,,,,,,,,,,,1,28,108,50,,,,,,,,,,,,,,,,,None,492.4588656220003,None,,,,,,,,,,,,,,,,,,,,,,,,,,,,,,,,491.13046105801186,None,491.13046105801186,None,left,1,1.3268765609973343,491.13046105801186,None,,,,,,,,,,,,,,,5,26,f,2021_Apr_09_2041,ldt_en_hi,2021.1.3,1420.7181065252626,
,,,,,,,,,,,,भावना,employer,right,7,,,,,,,,,,,,,1,29,109,24,,,,,,,,,,,,,,,,,None,493.8784535330051,None,,,,,,,,,,,,,,,,,,,,,,,,,,,,,,,,492.96295980100695,None,492.96295980100695,None,right,1,0.9139558619935997,492.96295980100695,None,,,,,,,,,,,,,,,5,26,f,2021_Apr_09_2041,ldt_en_hi,2021.1.3,1420.7181065252626,
,,,,,,,,,,,,घर,blow,right,7,,,,,,,,,,,,,1,30,110,28,,,,,,,,,,,,,,,,,None,495.10116774401104,None,,,,,,,,,,,,,,,,,,,,,,,,,,,,,,,,494.3821386070049,None,494.3821386070049,None,right,1,0.7174826589907752,494.3821386070049,None,,,,,,,,,,,,,,,5,26,f,2021_Apr_09_2041,ldt_en_hi,2021.1.3,1420.7181065252626,
,,,,,,,,,,,,लड़ाकू,boxer,right,6,,,,,,,,,,,,,1,31,111,9,,,,,,,,,,,,,,,,,None,496.6493327370117,None,,,,,,,,,,,,,,,,,,,,,,,,,,,,,,,,495.60477012100455,None,495.60477012100455,None,right,1,1.0432791310013272,495.60477012100455,None,,,,,,,,,,,,,,,5,26,f,2021_Apr_09_2041,ldt_en_hi,2021.1.3,1420.7181065252626,
,,,,,,,,,,,,लड़की,baby,right,6,,,,,,,,,,,,,1,32,112,3,,,,,,,,,,,,,,,,,None,498.01333778200205,None,,,,,,,,,,,,,,,,,,,,,,,,,,,,,,,,497.1529658220097,None,497.1529658220097,None,right,1,0.8588288329920033,497.1529658220097,None,,,,,,,,,,,,,,,5,26,f,2021_Apr_09_2041,ldt_en_hi,2021.1.3,1420.7181065252626,
,,,,,,,,,,,,तीर,bow,right,6,,,,,,,,,,,,,1,33,113,8,,,,,,,,,,,,,,,,,None,499.2217700750043,None,,,,,,,,,,,,,,,,,,,,,,,,,,,,,,,,498.5172412610118,None,498.5172412610118,None,right,1,0.7030159249989083,498.5172412610118,None,,,,,,,,,,,,,,,5,26,f,2021_Apr_09_2041,ldt_en_hi,2021.1.3,1420.7181065252626,
,,,,,,,,,,,,पैसे,cash,right,6,,,,,,,,,,,,,1,34,114,12,,,,,,,,,,,,,,,,,None,500.35746889001166,None,,,,,,,,,,,,,,,,,,,,,,,,,,,,,,,,499.7258061750035,None,499.7258061750035,None,right,1,0.6301615459960885,499.7258061750035,None,,,,,,,,,,,,,,,5,26,f,2021_Apr_09_2041,ldt_en_hi,2021.1.3,1420.7181065252626,
,,,,,,,,,,,,असमल,rug,left,9,,,,,,,,,,,,,1,35,115,74,,,,,,,,,,,,,,,,,None,502.13124418401276,None,,,,,,,,,,,,,,,,,,,,,,,,,,,,,,,,500.86073709301127,None,500.86073709301127,None,left,1,1.2689921699929982,500.86073709301127,None,,,,,,,,,,,,,,,5,26,f,2021_Apr_09_2041,ldt_en_hi,2021.1.3,1420.7181065252626,
,,,,,,,,,,,,जगल,policeman,left,9,,,,,,,,,,,,,1,36,116,77,,,,,,,,,,,,,,,,,None,504.4918309900095,None,,,,,,,,,,,,,,,,,,,,,,,,,,,,,,,,502.6347333520098,None,502.6347333520098,None,left,1,1.8555591080075828,502.6347333520098,None,,,,,,,,,,,,,,,5,26,f,2021_Apr_09_2041,ldt_en_hi,2021.1.3,1420.7181065252626,
,,,,,,,,,,,,जापान,cheat,right,7,,,,,,,,,,,,,1,37,117,22,,,,,,,,,,,,,,,,,None,506.20976673100085,None,,,,,,,,,,,,,,,,,,,,,,,,,,,,,,,,504.99593207500584,None,504.99593207500584,None,right,1,1.212307949012029,504.99593207500584,None,,,,,,,,,,,,,,,5,26,f,2021_Apr_09_2041,ldt_en_hi,2021.1.3,1420.7181065252626,
,,,,,,,,,,,,गाजर,dasewn,left,10,,,,,,,,,,,,,1,38,118,49,,,,,,,,,,,,,,,,,None,507.9071590220119,None,,,,,,,,,,,,,,,,,,,,,,,,,,,,,,,,506.7133600590023,None,506.7133600590023,None,left,1,1.1922703640011605,506.7133600590023,None,,,,,,,,,,,,,,,5,26,f,2021_Apr_09_2041,ldt_en_hi,2021.1.3,1420.7181065252626,
,,,,,,,,,,,,सच,copy,right,7,,,,,,,,,,,,,1,39,119,25,,,,,,,,,,,,,,,,,None,510.02759887800494,None,,,,,,,,,,,,,,,,,,,,,,,,,,,,,,,,508.4107799129997,None,508.4107799129997,None,right,1,1.6152668230060954,508.4107799129997,None,,,,,,,,,,,,,,,5,26,f,2021_Apr_09_2041,ldt_en_hi,2021.1.3,1420.7181065252626,
,,,,,,,,,,,,वन,chaos,right,7,,,,,,,,,,,,,1,40,120,33,,,,,,,,,,,,,,,,,None,512.2823955800122,None,,,,,,,,,,,,,,,,,,,,,,,,,,,,,,,,510.5311370360141,None,510.5311370360141,None,right,1,1.7497451729868772,510.5311370360141,None,,,,,,,,,,,,,,,5,26,f,2021_Apr_09_2041,ldt_en_hi,2021.1.3,1420.7181065252626,
,,,,,,,,,,,,अजमदा,tricycle,left,9,,,,,,,,,,,,,1,41,121,72,,,,,,,,,,,,,,,,,None,514.2585220380133,None,,,,,,,,,,,,,,,,,,,,,,,,,,,,,,,,512.7860529360041,None,512.7860529360041,None,left,1,1.4709205499966629,512.7860529360041,None,,,,,,,,,,,,,,,5,26,f,2021_Apr_09_2041,ldt_en_hi,2021.1.3,1420.7181065252626,
,,,,,,,,,,,,केल,cauliflower,left,9,,,,,,,,,,,,,1,42,122,73,,,,,,,,,,,,,,,,,None,516.5561792330118,None,,,,,,,,,,,,,,,,,,,,,,,,,,,,,,,,514.7620437760052,None,514.7620437760052,None,left,1,1.7925943329901202,514.7620437760052,None,,,,,,,,,,,,,,,5,26,f,2021_Apr_09_2041,ldt_en_hi,2021.1.3,1420.7181065252626,
,,,,,,,,,,,,खेती,dollars,right,7,,,,,,,,,,,,,1,43,123,21,,,,,,,,,,,,,,,,,None,518.6353337470064,None,,,,,,,,,,,,,,,,,,,,,,,,,,,,,,,,517.0600896660035,None,517.0600896660035,None,left,0,1.5736852910049492,517.0600896660035,None,,,,,,,,,,,,,,,5,26,f,2021_Apr_09_2041,ldt_en_hi,2021.1.3,1420.7181065252626,
,,,,,,,,,,,,गणित,biology,right,6,,,,,,,,,,,,,1,44,124,6,,,,,,,,,,,,,,,,,None,520.9305642870022,None,,,,,,,,,,,,,,,,,,,,,,,,,,,,,,,,519.1391017060087,None,519.1391017060087,None,left,0,1.789877860006527,519.1391017060087,None,,,,,,,,,,,,,,,5,26,f,2021_Apr_09_2041,ldt_en_hi,2021.1.3,1420.7181065252626,
,,,,,,,,,,,,फूल,suggeyf,left,10,,,,,,,,,,,,,1,45,125,53,,,,,,,,,,,,,,,,,None,522.3930220530019,None,,,,,,,,,,,,,,,,,,,,,,,,,,,,,,,,521.4344633670116,None,521.4344633670116,None,left,1,0.9570180159935262,521.4344633670116,None,,,,,,,,,,,,,,,5,26,f,2021_Apr_09_2041,ldt_en_hi,2021.1.3,1420.7181065252626,
,,,,,,,,,,,,गहना,diamond,right,6,,,,,,,,,,,,,1,46,126,20,,,,,,,,,,,,,,,,,None,523.8982742370135,None,,,,,,,,,,,,,,,,,,,,,,,,,,,,,,,,522.8965732500073,None,522.8965732500073,None,right,1,1.0001635939988773,522.8965732500073,None,,,,,,,,,,,,,,,5,26,f,2021_Apr_09_2041,ldt_en_hi,2021.1.3,1420.7181065252626,
,,,,,,,,,,,,अभिनय,calm,right,7,,,,,,,,,,,,,1,47,127,35,,,,,,,,,,,,,,,,,None,526.113824073007,None,,,,,,,,,,,,,,,,,,,,,,,,,,,,,,,,524.4020916500012,None,524.4020916500012,None,right,1,1.710206304996973,524.4020916500012,None,,,,,,,,,,,,,,,5,26,f,2021_Apr_09_2041,ldt_en_hi,2021.1.3,1420.7181065252626,
,,,,,,,,,,,,मछली,ucter,left,10,,,,,,,,,,,,,1,48,128,52,,,,,,,,,,,,,,,,,None,528.5957646620082,None,,,,,,,,,,,,,,,,,,,,,,,,,,,,,,,,526.617378889001,None,526.617378889001,None,left,1,1.9768327759957174,526.617378889001,None,,,,,,,,,,,,,,,5,26,f,2021_Apr_09_2041,ldt_en_hi,2021.1.3,1420.7181065252626,
,,,,,,,,,,,,गायक,dancer,right,6,,,,,,,,,,,,,1,49,129,18,,,,,,,,,,,,,,,,,None,530.1223159010115,None,,,,,,,,,,,,,,,,,,,,,,,,,,,,,,,,529.0994402840006,None,529.0994402840006,None,right,1,1.021344788998249,529.0994402840006,None,,,,,,,,,,,,,,,5,26,f,2021_Apr_09_2041,ldt_en_hi,2021.1.3,1420.7181065252626,
,,,,,,,,,,,,भीड़,crowd,right,6,,,,,,,,,,,,,1,50,130,17,,,,,,,,,,,,,,,,,None,531.2924166820012,None,,,,,,,,,,,,,,,,,,,,,,,,,,,,,,,,530.625776233006,None,530.625776233006,None,right,1,0.6650832269951934,530.625776233006,None,,,,,,,,,,,,,,,5,26,f,2021_Apr_09_2041,ldt_en_hi,2021.1.3,1420.7181065252626,
,,,,,,,,,,,,पागल,crazy,right,6,,,,,,,,,,,,,1,51,131,16,,,,,,,,,,,,,,,,,None,535.5485530940059,None,,,,,,,,,,,,,,,,,,,,,,,,,,,,,,,,531.7961076190113,None,531.7961076190113,None,right,1,3.7506655110046268,531.7961076190113,None,,,,,,,,,,,,,,,5,26,f,2021_Apr_09_2041,ldt_en_hi,2021.1.3,1420.7181065252626,
,,,,,,,,,,,,नेता,area,right,7,,,,,,,,,,,,,1,52,132,32,,,,,,,,,,,,,,,,,None,537.1216038650018,None,,,,,,,,,,,,,,,,,,,,,,,,,,,,,,,,536.0520350620063,None,536.0520350620063,None,right,1,1.0680221920047188,536.0520350620063,None,,,,,,,,,,,,,,,5,26,f,2021_Apr_09_2041,ldt_en_hi,2021.1.3,1420.7181065252626,
,,,,,,,,,,,,मैदान,blush,right,7,,,,,,,,,,,,,1,53,133,26,,,,,,,,,,,,,,,,,None,538.5281628690136,None,,,,,,,,,,,,,,,,,,,,,,,,,,,,,,,,537.6257220330008,None,537.6257220330008,None,right,1,0.9008954089949839,537.6257220330008,None,,,,,,,,,,,,,,,5,26,f,2021_Apr_09_2041,ldt_en_hi,2021.1.3,1420.7181065252626,
,,,,,,,,,,,,गुफा,perigrm,left,10,,,,,,,,,,,,,1,54,134,51,,,,,,,,,,,,,,,,,None,539.7693291300093,None,,,,,,,,,,,,,,,,,,,,,,,,,,,,,,,,539.03251270701,None,539.03251270701,None,left,1,0.7350573039875599,539.03251270701,None,,,,,,,,,,,,,,,5,26,f,2021_Apr_09_2041,ldt_en_hi,2021.1.3,1420.7181065252626,
,,,,,,,,,,,,कोमल,cure,right,7,,,,,,,,,,,,,1,55,135,34,,,,,,,,,,,,,,,,,None,541.5175967650139,None,,,,,,,,,,,,,,,,,,,,,,,,,,,,,,,,540.2729557830025,None,540.2729557830025,None,right,1,1.2428505580028286,540.2729557830025,None,,,,,,,,,,,,,,,5,26,f,2021_Apr_09_2041,ldt_en_hi,2021.1.3,1420.7181065252626,
,,,,,,,,,,,,महंगा,cheap,right,6,,,,,,,,,,,,,1,56,136,13,,,,,,,,,,,,,,,,,None,542.9798794400122,None,,,,,,,,,,,,,,,,,,,,,,,,,,,,,,,,542.0213433780009,None,542.0213433780009,None,right,1,0.9570028540038038,542.0213433780009,None,,,,,,,,,,,,,,,5,26,f,2021_Apr_09_2041,ldt_en_hi,2021.1.3,1420.7181065252626,
,,,,,,,,,,,,जापान,china,right,6,,,,,,,,,,,,,1,57,137,14,,,,,,,,,,,,,,,,,None,544.285221713013,None,,,,,,,,,,,,,,,,,,,,,,,,,,,,,,,,543.4836628490011,None,543.4836628490011,None,right,1,0.799973528002738,543.4836628490011,None,,,,,,,,,,,,,,,5,26,f,2021_Apr_09_2041,ldt_en_hi,2021.1.3,1420.7181065252626,
,,,,,,,,,,,,बाइन,atnton,left,8,,,,,,,,,,,,,1,58,138,61,,,,,,,,,,,,,,,,,None,545.6267330050032,None,,,,,,,,,,,,,,,,,,,,,,,,,,,,,,,,544.7888440890092,None,544.7888440890092,None,left,1,0.836341235000873,544.7888440890092,None,,,,,,,,,,,,,,,5,26,f,2021_Apr_09_2041,ldt_en_hi,2021.1.3,1420.7181065252626,
,,,,,,,,,,,,बहस,blaokbonvd,left,10,,,,,,,,,,,,,1,59,139,45,,,,,,,,,,,,,,,,,None,546.962955149007,None,,,,,,,,,,,,,,,,,,,,,,,,,,,,,,,,546.1302023600001,None,546.1302023600001,None,left,1,0.8311766289989464,546.1302023600001,None,,,,,,,,,,,,,,,5,26,f,2021_Apr_09_2041,ldt_en_hi,2021.1.3,1420.7181065252626,
,,,,,,,,,,,,शहनाई,decay,right,7,,,,,,,,,,,,,1,60,140,30,,,,,,,,,,,,,,,,,None,548.5714740280091,None,,,,,,,,,,,,,,,,,,,,,,,,,,,,,,,,547.4665573830134,None,547.4665573830134,None,right,1,1.1033810330118285,547.4665573830134,None,,,,,,,,,,,,,,,5,26,f,2021_Apr_09_2041,ldt_en_hi,2021.1.3,1420.7181065252626,
,,,,,,,,,,,,आतंकवादी,bomb,right,6,,,,,,,,,,,,,1,61,141,7,,,,,,,,,,,,,,,,,None,550.3473491570039,None,,,,,,,,,,,,,,,,,,,,,,,,,,,,,,,,549.075169423013,None,549.075169423013,None,right,1,1.270630576997064,549.075169423013,None,,,,,,,,,,,,,,,5,26,f,2021_Apr_09_2041,ldt_en_hi,2021.1.3,1420.7181065252626,
,,,,,,,,,,,,लड़की,boy,right,6,,,,,,,,,,,,,1,62,142,10,,,,,,,,,,,,,,,,,None,553.3462311200128,None,,,,,,,,,,,,,,,,,,,,,,,,,,,,,,,,550.8511732000043,None,550.8511732000043,None,right,1,2.493117899997742,550.8511732000043,None,,,,,,,,,,,,,,,5,26,f,2021_Apr_09_2041,ldt_en_hi,2021.1.3,1420.7181065252626,
,,,,,,,,,,,,अनुबध,leab,left,8,,,,,,,,,,,,,1,63,143,59,,,,,,,,,,,,,,,,,None,555.1912853800022,None,,,,,,,,,,,,,,,,,,,,,,,,,,,,,,,,553.8496303300053,None,553.8496303300053,None,left,1,1.340083090995904,553.8496303300053,None,,,,,,,,,,,,,,,5,26,f,2021_Apr_09_2041,ldt_en_hi,2021.1.3,1420.7181065252626,
,,,,,,,,,,,,नक,bnat,left,8,,,,,,,,,,,,,1,64,144,65,,,,,,,,,,,,,,,,,None,556.3979411210021,None,,,,,,,,,,,,,,,,,,,,,,,,,,,,,,,,555.6946605780104,None,555.6946605780104,None,left,1,0.7017370209941873,555.6946605780104,None,,,,,,,,,,,,,,,5,26,f,2021_Apr_09_2041,ldt_en_hi,2021.1.3,1420.7181065252626,
,,,,,,,,,,,,टराव,tumor,left,9,,,,,,,,,,,,,1,65,145,68,,,,,,,,,,,,,,,,,None,557.5825711020007,None,,,,,,,,,,,,,,,,,,,,,,,,,,,,,,,,556.901648501007,None,556.901648501007,None,left,1,0.6793588900036411,556.901648501007,None,,,,,,,,,,,,,,,5,26,f,2021_Apr_09_2041,ldt_en_hi,2021.1.3,1420.7181065252626,
,,,,,,,,,,,,खोज,expensive,right,7,,,,,,,,,,,,,1,66,146,29,,,,,,,,,,,,,,,,,None,558.9356812590122,None,,,,,,,,,,,,,,,,,,,,,,,,,,,,,,,,558.086336768014,None,558.086336768014,None,right,1,0.8473748649994377,558.086336768014,None,,,,,,,,,,,,,,,5,26,f,2021_Apr_09_2041,ldt_en_hi,2021.1.3,1420.7181065252626,
,,,,,,,,,,,,वकी,averake,left,8,,,,,,,,,,,,,1,67,147,63,,,,,,,,,,,,,,,,,None,560.1943988170096,None,,,,,,,,,,,,,,,,,,,,,,,,,,,,,,,,559.4418535130098,None,559.4418535130098,None,left,1,0.7509682519885246,559.4418535130098,None,,,,,,,,,,,,,,,5,26,f,2021_Apr_09_2041,ldt_en_hi,2021.1.3,1420.7181065252626,
